<?xml version="1.0" encoding="UTF-8"?>
<!--This example message is provided for illustrative purposes only. It has had no clinical validation. Where there are conflicts with the written message specification or schema, the specification or schema shall be considered to take precedence-->
<Bundle xmlns="http://hl7.org/fhir" xmlns:xsi="http://www.w3.org/2001/XMLSchema-instance" xsi:schemaLocation="http://hl7.org/fhir ../../SchemasSTU3/bundle.xsd">
	<id value="b073295d-df4a-4637-b039-d53e3026c03a"/>
	<meta>
		<profile value="https://fhir.nhs.uk/STU3/StructureDefinition/EMS-Bundle-1"/>
	</meta>
	<type value="message"/>
	<!--Entry for MessageHeader with id, timestamp, event type, source, responsible/publishing organization, communication-->
	<entry>
		<fullUrl value="urn:uuid:688a67f1-31d7-4612-8f9e-641fa7674068"/>
		<resource>
			<MessageHeader>
				<id value="688a67f1-31d7-4612-8f9e-641fa7674068"/>
				<meta>
					<profile value="https://fhir.nhs.uk/STU3/StructureDefinition/NEMS-MessageHeader-1"/>
				</meta>
				<extension url="https://fhir.nhs.uk/STU3/StructureDefinition/Extension-EMS-MessageEventType-1">
					<valueCodeableConcept>
						<coding>
							<system value="https://fhir.nhs.uk/STU3/CodeSystem/EMS-MessageEventType-1"/>
							<code value="new"/>
							<display value="New event message"/>
						</coding>
					</valueCodeableConcept>
				</extension>
				<event>
					<system value="https://fhir.nhs.uk/STU3/CodeSystem/EMS-EventType-1"/>
					<code value="EMS01"/>
					<display value="EMS Event Message Rejection"/>
				</event>
				<timestamp value="2018-02-01T10:00:00+00:00"/>
				<source>
					<endpoint value="urn:nhs-uk:addressing:ods:X26"/>
				</source>
				<responsible>
					<reference value="urn:uuid:b834d806-c076-11e7-abc4-cec278b6b50a"/>
					<display value="NHS DIGITAL"/>
				</responsible>
				<focus>
					<reference value="urn:uuid:9d9acbff-2570-4f04-b628-d28bc479fd47"/>
				</focus>
			</MessageHeader>
		</resource>
	</entry>
	<!--Entry for responsible/publishing organization i.e. NHS Digital-->
	<entry>
		<fullUrl value="urn:uuid:b834d806-c076-11e7-abc4-cec278b6b50a"/>
		<resource>
			<Organization>
				<id value="b834d806-c076-11e7-abc4-cec278b6b50a"/>
				<meta>
					<profile value="https://fhir.nhs.uk/STU3/StructureDefinition/CareConnect-EMS-Organization-1"/>
				</meta>
				<identifier>
					<system value="https://fhir.nhs.uk/Id/ods-organization-code"/>
					<value value="X26"/>
				</identifier>
				<name value="NHS DIGITAL"/>
				<address>
					<line value="1 TREVELYAN SQUARE"/>
					<line value="BOAR LANE"/>
					<city value="LEEDS"/>
					<district value="WEST YORKSHIRE"/>
					<postalCode value="LS1 6AE"/>
				</address>
			</Organization>
		</resource>
	</entry>
	<!--Entry for service type within the Organization i.e. National Events Management-->
	<entry>
		<fullUrl value="urn:uuid:81387254-e6b4-4d0d-9c03-00e2920b3395"/>
		<resource>
			<HealthcareService>
				<id value="81387254-e6b4-4d0d-9c03-00e2920b3395"/>
				<meta>
					<profile value="https://fhir.nhs.uk/STU3/StructureDefinition/NEMS-HealthcareService-1"/>
				</meta>
				<providedBy>
					<reference value="urn:uuid:b834d806-c076-11e7-abc4-cec278b6b50a"/>
					<display value="NHS DIGITAL"/>
				</providedBy>
				<type>
					<coding>
						<system value="https://fhir.nhs.uk/STU3/CodeSystem/EMS-HealthcareServiceType-1"/>
						<code value="EMS"/>
						<display value="National Events Management Service"/>
					</coding>
				</type>
			</HealthcareService>
		</resource>
	</entry>
	<!--Entry for communication for the event message, with reference to subject and payload-->
	<entry>
		<fullUrl value="urn:uuid:9d9acbff-2570-4f04-b628-d28bc479fd47"/>
		<resource>
			<Communication>
				<id value="9d9acbff-2570-4f04-b628-d28bc479fd47"/>
				<meta>
					<profile value="https://fhir.nhs.uk/STU3/StructureDefinition/NEMS-Communication-1"/>
				</meta>
				<status value="completed"/>
				<subject>
					<reference value="urn:uuid:41a7740c-1d7e-4fe8-bac5-5d757adbae03"/>
					<display value="DAWKINS, Jack"/>
				</subject>
				<payload>
					<contentReference>
						<reference value="urn:uuid:2042d940-45ba-4740-88a3-1e4405b63075"/>
					</contentReference>
				</payload>
			</Communication>
		</resource>
	</entry>
	<!--Entry for the Patient who is the subject of the Event Message containing the error.-->
	<entry>
		<fullUrl value="urn:uuid:41a7740c-1d7e-4fe8-bac5-5d757adbae03"/>
		<resource>
			<Patient>
				<id value="41a7740c-1d7e-4fe8-bac5-5d757adbae03"/>
				<meta>
					<profile value="https://fhir.nhs.uk/STU3/StructureDefinition/CareConnect-EMS-Patient-1"/>
				</meta>
				<identifier>
					<extension url="https://fhir.hl7.org.uk/STU3/StructureDefinition/Extension-CareConnect-NHSNumberVerificationStatus-1">
						<valueCodeableConcept>
							<coding>
								<system value="https://fhir.hl7.org.uk/STU3/CareConnect-NHSNumberVerificationStatus-1"/>
								<code value="01"/>
								<display value="Number present and verified"/>
							</coding>
						</valueCodeableConcept>
					</extension>
					<system value="https://fhir.nhs.uk/Id/nhs-number"/>
					<value value="9912003888"/>
				</identifier>
				<name>
					<use value="usual"/>
					<family value="DAWKINS"/>
					<given value="Jack"/>
				</name>
				<gender value="male"/>
				<birthDate value="2017-10-02">
					<extension url="http://hl7.org/fhir/StructureDefinition/patient-birthTime">
						<valueDateTime value="2017-10-02T20:12:00+00:00"/>
					</extension>
				</birthDate>
				<address>
					<use value="home"/>
					<line value="4 Sandmoor Drive"/>
					<city value="LEEDS"/>
					<postalCode value="LS17 7DF"/>
				</address>
			</Patient>
		</resource>
	</entry>
	<!--Entry for task with content of the Event Error Resolution.-->
	<entry>
		<fullUrl value="urn:uuid:2042d940-45ba-4740-88a3-1e4405b63075"/>
		<resource>
			<Task>
				<id value="2042d940-45ba-4740-88a3-1e4405b63075"/>
				<meta>
					<profile value="https://fhir.nhs.uk/STU3/StructureDefinition/EMS-EventMessageResponse-Task-1"/>
				</meta>
				<status value="requested"/>
				<intent value="order"/>
				<code>
					<coding>
						<system value="https://fhir.nhs.uk/STU3/CodeSystem/EMS-EventMessageActionCode-1"/>
						<code value="A02"/>
						<display value="Please resend the message with a valid NHS number"/>
					</coding>
				</code>
				<authoredOn value="2018-02-01T10:00:00+00:00"/>
				<reason>
					<coding>
						<system value="https://fhir.nhs.uk/STU3/CodeSystem/EMS-EventMessageResponseCode-1"/>
						<code value="R02"/>
						<display value="NHS Number Does Not Exist on PDS"/>
					</coding>
				</reason>
				<input>
					<type>
						<coding>
							<system value="https://fhir.nhs.uk/STU3/CodeSystem/EMS-EventMessageResponseInput-1"/>
							<code value="001"/>
							<display value="Response Level"/>
						</coding>
					</type>
					<valueCodeableConcept>
						<coding>
							<system value="https://fhir.nhs.uk/STU3/CodeSystem/EMS-EventMessageResponseLevel-1"/>
							<code value="002"/>
							<display value="Rejection"/>
						</coding>
					</valueCodeableConcept>
				</input>
				<input>
					<type>
						<coding>
							<system value="https://fhir.nhs.uk/STU3/CodeSystem/EMS-EventMessageResponseInput-1"/>
							<code value="002"/>
							<display value="Message ID"/>
						</coding>
					</type>
					<valueId value="096d372f-1996-40d1-8ac6-73be5c49f7eb"/>
				</input>
				<input>
					<type>
						<coding>
							<system value="https://fhir.nhs.uk/STU3/CodeSystem/EMS-EventMessageResponseInput-1"/>
							<code value="003"/>
							<display value="Line Number"/>
						</coding>
					</type>
					<valuePositiveInt value="131"/>
				</input>
			</Task>
		</resource>
	</entry>
</Bundle>
