{
  "resourceType": "Bundle",
  "id": "ebfdb21c-dc18-11e7-9296-cec278b6b50a",
  "fhir_comments": [
    "This example message is provided for illustrative purposes only. It has had no clinical validation. Where there are conflicts with the written message specification or schema, the specification or schema shall be considered to take precedence"
  ],
  "meta": {
    "profile": [
      "https://fhir.nhs.uk/STU3/StructureDefinition/EMS-Bundle-1"
    ]
  },
  "type": "message",
  "entry": [
    {
      "fhir_comments": [
        "Entry for MessageHeader with id, timestamp, event type, source, responsible/publishing organization, communication"
      ],
      "fullUrl": "urn:uuid:ebfdb2e4-dc18-11e7-9296-cec278b6b50a",
      "resource": {
        "resourceType": "MessageHeader",
        "meta": {
          "profile": [
            "https://fhir.nhs.uk/STU3/StructureDefinition/EMS-MessageHeader-1"
          ]
        },
        "extension": [
          {
            "url": "https://fhir.nhs.uk/STU3/StructureDefinition/Extension-EMS-MessageEventType-1",
            "valueCodeableConcept": {
              "coding": [
                {
                  "system": "https://fhir.nhs.uk/STU3/CodeSystem/EMS-MessageEventType-1",
                  "code": "new",
                  "display": "New event message"
                }
              ]
            }
          }
        ],
        "event": {
          "system": "https://fhir.nhs.uk/STU3/CodeSystem/EMS-EventType-1",
          "code": "FM001",
          "display": "National Population Failsafe Alert"
        },
        "timestamp": "2018-01-09T10:54:00+00:00",
        "source": {
          "endpoint": "urn:nhs-uk:addressing:ods:X26"
        },
        "responsible": {
          "reference": "urn:uuid:b834d806-c076-11e7-abc4-cec278b6b50a",
          "display": "NHS DIGITAL"
        },
        "focus": [
          {
            "reference": "urn:uuid:ebfdc798-dc18-11e7-9296-cec278b6b50a"
          }
        ]
      }
    },
    {
      "fhir_comments": [
        "Entry for responsible/publishing organization i.e. NHS Digital"
      ],
      "fullUrl": "urn:uuid:b834d806-c076-11e7-abc4-cec278b6b50a",
      "resource": {
        "resourceType": "Organization",
        "meta": {
          "profile": [
            "https://fhir.nhs.uk/STU3/StructureDefinition/CareConnect-EMS-Organization-1"
          ]
        },
        "identifier": [
          {
            "system": "https://fhir.nhs.uk/Id/ods-organization-code",
            "value": "X26"
          }
        ],
        "name": "NHS DIGITAL",
        "address": [
          {
            "line": [
              "1 TREVELYAN SQUARE",
              "BOAR LANE"
            ],
            "city": "LEEDS",
            "district": "WEST YORKSHIRE",
            "postalCode": "LS1 6AE"
          }
        ]
      }
    },
    {
      "fhir_comments": [
        "Entry for service type within the Organization i.e. National Population Failsafe"
      ],
      "fullUrl": "urn:uuid:b834db08-c076-11e7-abc4-cec278b6b50a",
      "resource": {
        "resourceType": "HealthcareService",
        "meta": {
          "profile": [
            "https://fhir.nhs.uk/STU3/StructureDefinition/EMS-HealthcareService-1"
          ]
        },
        "providedBy": {
          "reference": "urn:uuid:b834d806-c076-11e7-abc4-cec278b6b50a",
          "display": "NHS DIGITAL"
        },
        "type": [
          {
            "coding": [
              {
                "system": "https://fhir.nhs.uk/STU3/CodeSystem/EMS-HealthcareServiceType-1",
                "code": "NPFM",
                "display": "National Population Failsafe"
              }
            ]
          }
        ]
      }
    },
    {
      "fhir_comments": [
        "Entry for communication for the event message, with reference to subject and payload"
      ],
      "fullUrl": "urn:uuid:ebfdc798-dc18-11e7-9296-cec278b6b50a",
      "resource": {
        "resourceType": "Communication",
        "meta": {
          "profile": [
            "https://fhir.nhs.uk/STU3/StructureDefinition/EMS-Communication-1"
          ]
        },
        "status": "completed",
        "subject": {
          "reference": "urn:uuid:ebfdafba-dc18-11e7-9296-cec278b6b50a",
          "display": "PECKSNIFF, Mercy"
        },
        "payload": [
          {
            "contentReference": {
              "reference": "urn:uuid:ebfdc5fe-dc18-11e7-9296-cec278b6b50a"
            }
          }
        ]
      }
    },
    {
      "fhir_comments": [
        "Entry for the Patient who is the subject of the Failsafe Alert."
      ],
      "fullUrl": "urn:uuid:ebfdafba-dc18-11e7-9296-cec278b6b50a",
      "resource": {
        "resourceType": "Patient",
        "meta": {
          "profile": [
            "https://fhir.nhs.uk/STU3/StructureDefinition/CareConnect-EMS-Patient-1"
          ]
        },
        "identifier": [
          {
            "extension": [
              {
                "url": "https://fhir.hl7.org.uk/STU3/StructureDefinition/Extension-CareConnect-NHSNumberVerificationStatus-1",
                "valueCodeableConcept": {
                  "coding": [
                    {
                      "system": "https://fhir.hl7.org.uk/STU3/CareConnect-NHSNumberVerificationStatus-1",
                      "code": "01",
                      "display": "Number present and verified"
                    }
                  ]
                }
              }
            ],
            "system": "https://fhir.nhs.uk/Id/nhs-number",
            "value": "9912003926"
          }
        ],
        "name": [
          {
            "use": "usual",
            "family": "PECKSNIFF",
            "given": [
              "Mercy"
            ]
          }
        ],
        "gender": "female",
        "birthDate": "2017-09-17",
        "_birthDate": {
          "extension": [
            {
              "url": "http://hl7.org/fhir/StructureDefinition/patient-birthTime",
              "valueDateTime": "2017-09-17T20:00:00+00:00"
            }
          ]
        },
        "address": [
          {
            "use": "home",
            "line": [
              "3 WELLHOUSE CLOSE"
            ],
            "city": "WAKEFIELD",
            "postalCode": "WF14 0BQ"
          }
        ]
      }
    },
    {
      "fhir_comments": [
        "Entry for task with content of the Failsafe Alert."
      ],
      "fullUrl": "urn:uuid:ebfdc5fe-dc18-11e7-9296-cec278b6b50a",
      "resource": {
        "resourceType": "Task",
        "meta": {
          "profile": [
            "https://fhir.nhs.uk/STU3/StructureDefinition/EMS-FailsafeAlert-Task-1"
          ]
        },
        "extension": [
          {
            "fhir_comments": [
              "FailsafeAlert-Severity Level"
            ],
            "url": "https://fhir.nhs.uk/STU3/StructureDefinition/Extension-EMS-FailsafeAlertSeverityLevel-1",
            "valueCodeableConcept": {
              "coding": [
                {
                  "system": "https://fhir.nhs.uk/STU3/CodeSystem/EMS-FailsafeAlertSeverityLevel-1",
                  "code": "Warning Alert",
                  "display": "Warning Alert"
                }
              ]
            }
          },
          {
            "fhir_comments": [
              "FailsafeAlert-Escalation Level"
            ],
            "url": "https://fhir.nhs.uk/STU3/StructureDefinition/Extension-EMS-FailsafeAlertEscalationLevel-1",
            "valueCodeableConcept": {
              "coding": [
                {
                  "system": "https://fhir.nhs.uk/STU3/CodeSystem/EMS-FailsafeAlertEscalationLevel-1",
                  "code": "Manager of Service",
                  "display": "Manager of Service"
                }
              ]
            }
          }
        ],
        "status": "requested",
        "intent": "order",
        "code": {
          "fhir_comments": [
            "FailsafeAlert-Action Required"
          ],
          "coding": [
            {
              "system": "https://fhir.nhs.uk/STU3/CodeSystem/EMS-FailsafeAlertActionRequired-1",
              "code": "002",
              "display": "Please contact parent to discuss GP registration"
            }
          ]
        },
        "description": "Severity Level: Warning Alert - Escalation Level: Manager of Service - Condition ID: 003 - Condition Description: Missing GP Service - Reason for alert: Individual has a missing association with a GP Service - Service needed to action: CHO - Action Required: Please contact parent to discuss GP registration - Action Required by Date: 2018-02-06T10:54:00+00:00",
        "_description": {
          "fhir_comments": [
            "FailsafeAlert-ReadableFormat"
          ]
        },
        "focus": {
          "fhir_comments": [
            "FailsafeAlert-Patient"
          ],
          "reference": "urn:uuid:ebfdafba-dc18-11e7-9296-cec278b6b50a",
          "display": "PECKSNIFF, Mercy"
        },
        "authoredOn": "2018-01-09T10:54:00+00:00",
        "_authoredOn": {
          "fhir_comments": [
            "FailsafeAlert-Date and Time raised"
          ]
        },
        "performerType": [
          {
            "fhir_comments": [
              "FailsafeAlert-ServiceToAction"
            ],
            "coding": [
              {
                "system": "https://fhir.nhs.uk/STU3/CodeSystem/EMS-FailsafeAlertServiceToAction-1",
                "code": "CHO",
                "display": "CHO"
              }
            ]
          }
        ],
        "reason": {
          "fhir_comments": [
            "FailsafeAlert-ConditionCode"
          ],
          "coding": [
            {
              "system": "https://fhir.nhs.uk/STU3/CodeSystem/EMS-FailsafeAlertReason-1",
              "code": "003",
              "display": "Missing GP Service - Individual has a missing association with a GP Service"
            }
          ]
        },
        "restriction": {
          "period": {
            "fhir_comments": [
              "FailsafeAlert-Action Required By End Date"
            ],
            "end": "2018-02-06T10:54:00+00:00"
          }
        }
      }
    }
  ]
}