<?xml version="1.0" encoding="UTF-8"?>
<Bundle xmlns="http://hl7.org/fhir">
 <id value="e6492db3-3788-4519-bebd-2bdf7d7236d8"/>
 <meta>
  <profile value="https://fhir.nhs.uk/STU3/StructureDefinition/ITK-Message-Bundle-1"/>
 </meta>
 <identifier>
  <value value="a3940bf5-b82e-4c4f-9477-9bbe6861d634"/>
 </identifier>
 <type value="message"/>
 <entry>
  <fullUrl value="urn:uuid:a4409d7c-b613-477c-b623-87e60406c2f0"/>
  <resource>
   <MessageHeader>
    <id value="a4409d7c-b613-477c-b623-87e60406c2f0"/>
    <meta>
     <profile value="https://fhir.nhs.uk/STU3/StructureDefinition/ITK-MessageHeader-2"/>
    </meta>
    <extension url="https://fhir.nhs.uk/STU3/StructureDefinition/Extension-ITK-MessageHandling-2">
     <extension url="BusAckRequested">
      <valueBoolean value="true"/>
     </extension>
     <extension url="InfAckRequested">
      <valueBoolean value="true"/>
     </extension>
     <extension url="RecipientType">
      <valueCoding>
       <system value="https://fhir.nhs.uk/STU3/CodeSystem/ITK-RecipientType-1"/>
       <code value="FA"/>
       <display value="For Action"/>
      </valueCoding>
     </extension>
     <extension url="Priority">
      <valueCoding>
       <system value="https://fhir.nhs.uk/STU3/CodeSystem/ITK-Priority-1"/>
       <code value="routine"/>
       <display value="Routine"/>
      </valueCoding>
     </extension>
     <extension url="MessageDefinition">
      <valueReference>
       <reference value="https://fhir.nhs.uk/STU3/MessageDefinition/ITK-EDIS-MessageDefinition-1"/>
      </valueReference>
     </extension>
    </extension>
    <event>
     <system value="https://fhir.nhs.uk/STU3/CodeSystem/ITK-MessageEvent-2"/>
     <code value="ITK003D"/>
     <display value="ITK eDischarge"/>
    </event>
    <receiver>
     <reference value="c7d0d92f-4db9-4ab0-89c8-375afca971ad"/>
    </receiver>
    <sender>
     <reference value="b86216fe-6a51-4687-af97-4b7d58154c39"/>
    </sender>
    <timestamp value="2017-01-23T10:10:16+00:00"/>
    <source>
     <endpoint value="1.2.826.0.1285.0.2.0.107"/>
    </source>
    <focus>
     <reference value="289f9d42-6f97-40d2-890a-d3d0af397ac7"/>
    </focus>
   </MessageHeader>
  </resource>
 </entry>
 <!--Practitioner-->
 <entry>
  <fullUrl value="urn:uuid:b86216fe-6a51-4687-af97-4b7d58154c39"/>
  <resource>
   <Practitioner>
    <id value="b86216fe-6a51-4687-af97-4b7d58154c39"/>
    <meta>
     <profile value="https://fhir.nhs.uk/STU3/StructureDefinition/CareConnect-ITK-Header-Practitioner-1"/>
    </meta>
    <identifier>
     <system value="https://fhir.nhs.uk/Id/sds-user-id"/>
     <value value="033345750518"/>
    </identifier>
    <name>
     <family value="Rastall"/>
     <given value="Paul"/>
     <prefix value="Dr"/>
    </name>
   </Practitioner>
  </resource>
 </entry>
 <!--Organization-->
 <entry>
  <fullUrl value="urn:uuid:c7d0d92f-4db9-4ab0-89c8-375afca971ad"/>
  <resource>
   <Organization>
    <id value="c7d0d92f-4db9-4ab0-89c8-375afca971ad"/>
    <meta>
     <profile value="https://fhir.nhs.uk/STU3/StructureDefinition/CareConnect-ITK-Header-Organization-1"/>
    </meta>
    <identifier>
     <system value="https://fhir.nhs.uk/Id/ods-organization-code"/>
     <value value="RY6"/>
    </identifier>
   </Organization>
  </resource>
 </entry>
 <entry>
  <fullUrl value="urn:uuid:289f9d42-6f97-40d2-890a-d3d0af397ac7"/>
  <resource>
   <!-- An example document bundle, in this case an outline example containing only an outline EDIS-Composition with no linked resources -->
   <Bundle>
    <id value="289f9d42-6f97-40d2-890a-d3d0af397ac7"/>
    <meta>
     <profile value="https://fhir.nhs.uk/STU3/StructureDefinition/ITK-Document-Bundle-1"/>
    </meta>
    <identifier>
     <system value="abc"/>
     <value value="ac2226e1-35f7-4fc4-87dc-67df070a188d"/>
    </identifier>
    <type value="document"/>
    <!--Outline Composition profile with mandatory elements populated only-->
    <entry>
     <fullUrl value="urn:uuid:ca9b6788-fb34-4668-9d61-a8cc2f9a5fdc"/>
     <resource>
      <Composition>
       <id value="ca9b6788-fb34-4668-9d61-a8cc2f9a5fdc"/>
       <meta>
        <profile value="https://fhir.nhs.uk/STU3/StructureDefinition/ITK-EDIS-Composition-1"/>
       </meta>
       <identifier>
        <value value="5f3c870f-ee67-4065-8469-cd3a900682ee"/>
       </identifier>
       <status value="final"/>
       <type>
        <!--Discharge Summary-->
        <coding>
         <system value="http://snomed.info/sct"/>
         <code value="373942005"/>
         <display value="Discharge summary (record artifact)"/>
        </coding>
       </type>
       <subject>
        <reference value="urn:uuid:d3ed9822-fa2b-4972-af0a-ec19e7a3ad11"/>
       </subject>
       <date value="2017-08-17T10:00:00+00:00"/>
       <author>
        <reference value="urn:uuid:b86216fe-6a51-4687-af97-4b7d58154c39"/>
       </author>
       <title value="Discharge summary"/>
       <confidentiality value="V"/>
      </Composition>
     </resource>
    </entry>
   </Bundle>
  </resource>
 </entry>
</Bundle>
