<?xml version="1.0" encoding="UTF-8"?>
<!--This xml example is for illustrative purposes only and has not been clinically verified-->
<Bundle xmlns="http://hl7.org/fhir">
 <id value="6191cc21-cb11-4d99-8cb2-2afe1c7e9d2f"/>
 <meta>
  <profile value="https://fhir.nhs.uk/STU3/StructureDefinition/ITK-Document-Bundle-1"/>
 </meta>
 <identifier>
  <system value="https://tools.ietf.org/html/rfc4122"/>
  <value value="ad8f4875-3224-49b3-aa63-5e338b76a34f"/>
 </identifier>
 <type value="document"/>
 <!--Outpatient Letter Composition-->
 <entry>
  <fullUrl value="urn:uuid:2deee69e-70a3-4e90-b923-92ee86a15399"/>
  <resource>
   <Composition>
    <id value="2deee69e-70a3-4e90-b923-92ee86a15399"/>
    <meta>
     <profile value="https://fhir.nhs.uk/STU3/StructureDefinition/ITK-OPL-Composition-1"/>
    </meta>
    <!-- Extension to carry details of the Correspondence Care Setting Type. -->
    <extension url="https://fhir.nhs.uk/STU3/StructureDefinition/Extension-ITK-CareSettingType-1">
     <valueCodeableConcept>
      <coding>
       <system value="http://snomed.info/sct"/>
       <code value="829981000000108"/>
       <display value="Community child health service"/>
      </coding>
     </valueCodeableConcept>
    </extension>
    <identifier>
     <value value="124c75d3-8816-44d0-93a6-b8626280ad56"/>
    </identifier>
    <status value="final"/>
    <type>
     <!--Outpatient letter -->
     <coding>
      <system value="http://snomed.info/sct"/>
      <code value="823681000000100"/>
      <display value="Outpatient letter"/>
     </coding>
    </type>
    <subject>
     <reference value="urn:uuid:6c66c32f-655a-4b9c-9bb7-5ae31fc93010"/>
    </subject>
    <encounter>
     <reference value="urn:uuid:4f36b35a-ad18-4ea9-a3fb-c893f709e88a"/>
    </encounter>
    <!--The composition editing time, when the composition was last logically changed by the author.-->
    <date value="2017-05-01T16:42:00+00:00"/>
    <!--Identifies who is responsible for the information in the composition, not necessarily who typed it in-->
    <author>
     <reference value="urn:uuid:7ed1b03c-47f9-43c8-8dd2-675819cd8aee"/>
    </author>
    <title value="Outpatient letter"/>
    <custodian>
     <reference value="urn:uuid:f725c91c-e4c2-43f2-b92e-0cba8deb9687"/>
    </custodian>
    <!--Allergies and adverse reactions-->
    <section>
     <title value="Allergies and adverse reactions"/>
     <code>
      <coding>
       <system value="http://snomed.info/sct"/>
       <code value="886921000000105"/>
       <display value="Allergies and adverse reactions"/>
      </coding>
     </code>
     <text>
      <status value="generated"/>
      <div xmlns="http://www.w3.org/1999/xhtml">
       <table width="100%">
        <tbody>
         <tr>
          <th>Causative agent</th>
          <td>No known drug allergies or adverse reactions</td>
         </tr>
        </tbody>
       </table>
      </div>
     </text>
     <!--Reference to Allergies list-->
     <entry>
      <reference value="urn:uuid:c9219ccf-707d-4d78-99d3-800ff0d7c57c"/>
     </entry>
    </section>
    <!--Attendance details section-->
    <section>
     <title value="Attendance details"/>
     <code>
      <coding>
       <system value="http://snomed.info/sct"/>
       <code value="1077881000000105"/>
       <display value="Attendance details"/>
      </coding>
     </code>
     <text>
      <status value="additional"/>
      <div xmlns="http://www.w3.org/1999/xhtml">
       <table width="100%">
        <tbody>
         <tr>
          <td colspan="2" style="width:100%">Dear Dr. O'Reilly, <br/>I had the pleasure of seeing Mary and her mother Sally in my outpatient clinic today.<br/>
          </td>
         </tr>
         <tr>
          <th>Date and time of contact</th>
          <td>01/05/2017</td>
         </tr>
         <tr>
          <th>Contact type</th>
          <td>Follow-up attendance face to face</td>
         </tr>
         <tr>
          <th>Consultation method</th>
          <td>Face-to-face</td>
         </tr>
         <tr>
          <th>Responsible healthcare professional</th>
          <td>Dr. Arnold Rimmer (Consultant Paediatrician)</td>
         </tr>
         <tr>
          <th>Specialty</th>
          <td>Community paediatric service</td>
         </tr>
         <tr>
          <th>Service</th>
          <td>Community child health service</td>
         </tr>
         <tr>
          <th>Seen by</th>
          <td>
           <p>Dr. Arnold Rimmer</p>
           <p>Role: Community Paediatrician</p>
           <p>Tel: (01234) 564563</p>
          </td>
         </tr>
         <tr>
          <th>Care professionals present</th>
          <td>
           <p>Jenny White, Occupational therapist</p>
           <p>Sarah Hall, Health care assistant</p>
          </td>
         </tr>
         <tr>
          <th>Person accompanying patient</th>
          <td>Sally Jones, patient's mother</td>
         </tr>
         <tr>
          <th>Outcome of patient attendance</th>
          <td>Appointment to be made at a later date</td>
         </tr>
        </tbody>
       </table>
      </div>
     </text>
    </section>
    <!--Clinical summary-->
    <section>
     <title value="Clinical summary"/>
     <code>
      <coding>
       <system value="http://snomed.info/sct"/>
       <code value="887181000000106"/>
       <display value="Clinical summary"/>
      </coding>
     </code>
     <text>
      <status value="additional"/>
      <div xmlns="http://www.w3.org/1999/xhtml">
       <table width="100%">
        <tbody>
         <tr>
          <th>Clinical Summary</th>
         </tr>
         <tr>
          <td>
           <p>Mary attended today for a scheduled review of tonic-clonic seizures and gastro-oesophageal reflux.</p>
           <p>Mary has been well. However she is now having on average four tonic-clonic seizures a day. Her mother has had to give her rectal diazepam on two occasions but she has not needed to go to hospital. She had a PEG inserted in April 2017 and her reflux has reduced considerably since then. She has increasing spasticity of right hip and more frequent tonic-clonic convulsions.</p>
          </td>
         </tr>
        </tbody>
       </table>
      </div>
     </text>
    </section>
    <section>
     <title value="Clinical review of systems"/>
     <code>
      <coding>
       <system value="http://snomed.info/sct"/>
       <code value="887121000000105"/>
       <display value="Review of systems"/>
      </coding>
     </code>
     <text>
      <status value="additional"/>
      <div xmlns="http://www.w3.org/1999/xhtml">
       <table width="100%">
        <tbody>
         <tr>
          <th>Clinical review of systems</th>
         </tr>
         <tr>
          <td>
           <p style="text-decoration:underline">Neurodevelopmental assessment</p>
           <p>Mary can now sit unsupported for about 30 seconds. When lying prone she can draw her knees up underneath her but does not make any attempts to move. In clinic she was able to complete the circle and square form board but cannot do them reversed. She can say 10 words with meaning and her mother feels she can understand far more. She is able to finger feed and will drink from a cup if it is held for her. She is becoming more sociable and has a lovely smile.</p>
          </td>
         </tr>
        </tbody>
       </table>
      </div>
     </text>
    </section>
    <!--Diagnoses-->
    <section>
     <title value="Diagnoses"/>
     <code>
      <coding>
       <system value="http://snomed.info/sct"/>
       <code value="887161000000102"/>
       <display value="Diagnoses"/>
      </coding>
     </code>
     <text>
      <status value="generated"/>
      <div xmlns="http://www.w3.org/1999/xhtml">
       <table>
        <tbody>
         <tr>
          <th>Diagnosis name</th>
          <td>Tonic-clonic seizures</td>
         </tr>
         <tr>
          <th>Diagnosis name</th>
          <td>Gastro-oesophageal reflux</td>
         </tr>
         <tr>
          <th>Diagnosis name</th>
          <td>Spastic quadriplegia secondary to birth asphyxia</td>
         </tr>
         <tr>
          <th>Diagnosis name</th>
          <td>Cortical visual impairment</td>
         </tr>
         <tr>
          <th>Diagnosis name</th>
          <td>Bilateral convergent squint</td>
         </tr>
         <tr>
          <th>Diagnosis name</th>
          <td>General learning difficulties</td>
         </tr>
        </tbody>
       </table>
      </div>
     </text>
     <!--Reference to Condition resources-->
     <entry>
      <reference value="urn:uuid:8de990a9-8df5-492d-9e32-6516dccd8b07"/>
     </entry>
     <entry>
      <reference value="urn:uuid:5678ec88-8bd0-4d8c-ae79-e0e1df2959a1"/>
     </entry>
     <entry>
      <reference value="urn:uuid:2049cdf1-ce20-47a2-a3ca-7f23cd40549c"/>
     </entry>
     <entry>
      <reference value="urn:uuid:bc5e67c7-721e-4973-8e3c-d87e13e9d3ce"/>
     </entry>
     <entry>
      <reference value="urn:uuid:a423cb85-bffc-4198-9a9c-1247d36b28da"/>
     </entry>
     <entry>
      <reference value="urn:uuid:153c3f48-9823-41ea-8b08-7db1c65181b6"/>
     </entry>
    </section>
    <!--Distribution list-->
    <section>
     <title value="Distribution list"/>
     <code>
      <coding>
       <system value="http://snomed.info/sct"/>
       <code value="887261000000109"/>
       <display value="Distribution list"/>
      </coding>
     </code>
     <text>
      <status value="generated"/>
      <div xmlns="http://www.w3.org/1999/xhtml">
       <table width="100%">
        <tbody>
         <tr>
          <th>Name</th>
          <td>Sally Jones</td>
         </tr>
         <tr>
          <th>Relationship to subject</th>
          <td>Patient's mother</td>
         </tr>
        </tbody>
       </table>
       <table width="100%">
        <tbody>
         <tr>
          <th>Name</th>
          <td>Ian Jones</td>
         </tr>
         <tr>
          <th>Relationship to subject</th>
          <td>Patient's father</td>
         </tr>
        </tbody>
       </table>
       <table width="100%">
        <tbody>
         <tr>
          <th>Name</th>
          <td>Dr C O'Reilly</td>
         </tr>
         <tr>
          <th>Role</th>
          <td>GP</td>
         </tr>
         <tr>
          <th>Organisation</th>
          <td>Canvas Health Centre - Organisation ID: A111111</td>
         </tr>
         <tr>
          <th>Relationship to subject</th>
          <td>GP</td>
         </tr>
        </tbody>
       </table>
       <table width="100%">
        <tbody>
         <tr>
          <th>Name</th>
          <td>Dr Charlotte Worth</td>
         </tr>
         <tr>
          <th>Role</th>
          <td>Consultant Orthopaedic physician</td>
         </tr>
         <tr>
          <th>Organisation</th>
          <td>St. Crispin's Hospital - Organisation ID: RX0000</td>
         </tr>
         <tr>
          <th>Relationship to subject</th>
          <td>Patient's consultant</td>
         </tr>
        </tbody>
       </table>
       <table width="100%">
        <tbody>
         <tr>
          <th>Name</th>
          <td>Philip Brown</td>
         </tr>
         <tr>
          <th>Role</th>
          <td>Epilepsy nurse</td>
         </tr>
         <tr>
          <th>Organisation</th>
          <td>St. Crispin's Hospital - Organisation ID: RX0000</td>
         </tr>
         <tr>
          <th>Relationship to subject</th>
          <td>Patient's Epilepsy nurse</td>
         </tr>
        </tbody>
       </table>
      </div>
     </text>
     <!--Reference to the practitioner entries as recipients of information-->
     <entry>
      <reference value="urn:uuid:598a5239-fc65-46ed-94b2-9357ae08f6ef"/>
     </entry>
     <entry>
      <reference value="urn:uuid:4e42a3ef-6ba8-4fc4-954b-792e21539d32"/>
     </entry>
     <entry>
      <reference value="urn:uuid:9ef45ff1-d75c-4595-8812-1be366210688"/>
     </entry>
     <!--Reference to the related person entries as recipients of information-->
     <entry>
      <reference value="urn:uuid:2e1a0589-6c62-4592-84f2-8f845049d378"/>
     </entry>
     <entry>
      <reference value="urn:uuid:b6e1c220-5c50-4b9a-aec1-8a96927b44d9"/>
     </entry>
    </section>
    <!--Examination findings-->
    <section>
     <title value="Examination finding"/>
     <code>
      <coding>
       <system value="http://snomed.info/sct"/>
       <code value="715851000000102"/>
       <display value="Examination findings"/>
      </coding>
     </code>
     <text>
      <status value="generated"/>
      <div xmlns="http://www.w3.org/1999/xhtml">
       <table width="100%">
        <tbody>
         <tr>
          <th>Examination findings</th>
          <td>Musculosketal system and nervous system<br/>Mary's ankles both dorsiflex to 90 degrees. Her hips are very tight; the right hip only abducts to 30 degrees and the left hip to 45 degrees. The right hip has deteriorated.<br/>Dental<br/>No evidence of dental caries.</td>
         </tr>
        </tbody>
       </table>
      </div>
     </text>
     <!--Reference to Observations-->
     <entry>
      <reference value="urn:uuid:ac04d4bc-1827-4c91-afa0-dd6e3c1f69e2"/>
     </entry>
     <entry>
      <reference value="urn:uuid:02452a9b-4bf0-4d4a-b648-5af1509a9c95"/>
     </entry>
     <entry>
      <reference value="urn:uuid:eb8b4a15-dd40-47cf-ab9c-2772777d4b6a"/>
     </entry>
     <entry>
      <reference value="urn:uuid:c6476727-0eb2-4881-9ddd-5fe4fb36ea42"/>
     </entry>
    </section>
    <!-- GP Practice-->
    <section>
     <title value="GP practice"/>
     <code>
      <coding>
       <system value="http://snomed.info/sct"/>
       <code value="886711000000101"/>
       <display value="GP practice details"/>
      </coding>
     </code>
     <text>
      <status value="additional"/>
      <div xmlns="http://www.w3.org/1999/xhtml">
       <table width="100%">
        <tbody>
         <tr>
          <th>GP practice identifier</th>
          <td>A111111</td>
         </tr>
         <tr>
          <th>GP name</th>
          <td>Dr C O'Reilly</td>
         </tr>
         <tr>
          <th>GP practice details</th>
          <td>Canvas Health Centre, 27, Acacia Road, BM9 6PM</td>
         </tr>
        </tbody>
       </table>
      </div>
     </text>
     <!--Reference to the Organisation entry as the source of information for this section-->
     <entry>
      <reference value="urn:uuid:48feca8e-92e9-45c1-afcf-1b4aabe72d0b"/>
     </entry>
    </section>
    <!-- History section information not provided-->
    <!-- Information and advice given section information not provided-->
    <!-- Investigation results section information not provided-->
    <!-- Legal information section information not provided-->
    <!--Medication and medical devices-->
    <section>
     <title value="Medications and medical devices"/>
     <code>
      <coding>
       <system value="http://snomed.info/sct"/>
       <code value="933361000000108"/>
       <display value="Medications and medical devices"/>
      </coding>
     </code>
     <text>
      <status value="generated"/>
      <div xmlns="http://www.w3.org/1999/xhtml">
       <table width="100%">
        <tbody>
         <tr>
          <td style="width:100%">(only changes to medications and medical devices as a result of the outpatient encounter are included)</td>
         </tr>
        </tbody>
       </table>
       <table width="100%">
        <tbody>
         <tr>
          <th>Medication item</th>
          <td>Medication name: Lamotrigine</td>
          <td>Form: Dispersible tablets</td>
          <td>Route: Via gastrostomy</td>
          <td>Dose directions description: To be taken via gastrostomy at 10mg twice a day. Total dose daily quantity: 20mg</td>
         </tr>
         <tr>
          <th>Course details</th>
          <td colspan="4">Comment/recommendation: 14-day prescription provided, please provide a new prescription on parent's request.</td>
         </tr>
         <tr>
          <th>Medication change</th>
          <td>Status: Amended</td>
          <td>Indication: Medication changed due to increasing tonic-clonic convulsions</td>
          <td colspan="2">Comment: Medication amended - Increase to 10mg twice daily. Date of change: 01/05/17.</td>
         </tr>
        </tbody>
       </table>
       <br/>
      </div>
     </text>
     <!--Reference to Medication list-->
     <entry>
      <reference value="urn:uuid:fed28a5f-233b-4800-ac0a-0929f1b5d3be"/>
     </entry>
    </section>
    <!-- Patient demographics-->
    <section>
     <title value="Patient demographics"/>
     <code>
      <coding>
       <system value="http://snomed.info/sct"/>
       <code value="886731000000109"/>
       <display value="Patient demographics"/>
      </coding>
     </code>
     <text>
      <status value="generated"/>
      <div xmlns="http://www.w3.org/1999/xhtml">
       <table width="100%">
        <tbody>
         <tr>
          <th>Patient name</th>
          <td>Miss Mary Jones</td>
         </tr>
         <tr>
          <th>Patient preferred name</th>
          <td>Mary Jones</td>
         </tr>
         <tr>
          <th>Date of birth</th>
          <td>1 February 2013</td>
         </tr>
         <tr>
          <th>Gender</th>
          <td>2 Female</td>
         </tr>
         <tr>
          <th>NHS number</th>
          <td>124 352 3190</td>
         </tr>
         <tr>
          <th>Other identifier</th>
          <td>TL56945</td>
         </tr>
         <tr>
          <th>Patient address</th>
          <td>31 Acacia Road, BM9 6PL</td>
         </tr>
         <tr>
          <th>Relevant contacts</th>
          <td>Sally Jones (Patient's mother) Email: sally@jones.net Tel: 077 1234 7777</td>
         </tr>
         <tr>
          <th>Educational establishment</th>
          <td>Greenacre School, Donaldstown DO5 6AA</td>
         </tr>
        </tbody>
       </table>
      </div>
     </text>
     <!--reference to further information carried in the patient resource-->
     <entry>
      <reference value="urn:uuid:6c66c32f-655a-4b9c-9bb7-5ae31fc93010"/>
     </entry>
    </section>
    <!--Person completing record section-->
    <section>
     <title value="Person completing record"/>
     <code>
      <coding>
       <system value="http://snomed.info/sct"/>
       <code value="887231000000104"/>
       <display value="Person completing record"/>
      </coding>
     </code>
     <text>
      <status value="generated"/>
      <div xmlns="http://www.w3.org/1999/xhtml">
       <table width="100%">
        <tbody>
         <tr>
          <th>Name</th>
          <td>Dr. Arnold Rimmer</td>
         </tr>
         <tr>
          <th>Role</th>
          <td>Consultant Community Paediatrician</td>
         </tr>
         <tr>
          <th>Grade</th>
          <td>Not given</td>
         </tr>
         <tr>
          <th>Specialty</th>
          <td>Paediatrics</td>
         </tr>
         <tr>
          <th>Professional identifier</th>
          <td>6775556</td>
         </tr>
         <tr>
          <th>Date and time completed</th>
          <td>01 May 2017 16:42</td>
         </tr>
         <tr>
          <th>Contact details</th>
          <td>Tel: (01234) 564563</td>
         </tr>
        </tbody>
       </table>
      </div>
     </text>
     <!--reference to practitioner entry-->
     <entry>
      <reference value="urn:uuid:7ed1b03c-47f9-43c8-8dd2-675819cd8aee"/>
     </entry>
    </section>
    <!--Plan and requested actions-->
    <section>
     <title value="Plan and requested actions"/>
     <code>
      <coding>
       <system value="http://snomed.info/sct"/>
       <code value="887201000000105"/>
       <display value="Plan and requested actions"/>
      </coding>
     </code>
     <text>
      <status value="additional"/>
      <div xmlns="http://www.w3.org/1999/xhtml">
       <table width="100%">
        <tbody>
         <tr>
          <th>Actions for healthcare professionals</th>
          <td>
           <p>Request to orthopaedics for early appointment for advice on deteriorating right hip</p>
           <p>Person responsible: Dr. Arnold Rimmer, Community Paediatrician 01/05/17</p>
           <p>Status: Requested</p>
           <br/>
           <p>Letter of support to education regarding school transport</p>
           <p>Person responsible: Dr. Arnold Rimmer, Community Paediatrician 01/05/17</p>
           <p>Status: Requested</p>
           <br/>
           <p>Review medication with Sally's mother by telephone in two weeks.</p>
           <p>Person responsible: Phil Brown, Epilepsy nurse</p>
           <p>Status: Planned</p>
           <br/>
          </td>
         </tr>
         <tr>
          <th>Actions for patient or their carer</th>
          <td>Mrs. Jones to contact epilepsy nurse on 01226 730000 if she has and concerns regarding convulsions and medical change.</td>
         </tr>
        </tbody>
       </table>
      </div>
     </text>
    </section>
    <!--Problems and issues-->
    <section>
     <title value="Problems and issues"/>
     <code>
      <coding>
       <system value="http://snomed.info/sct"/>
       <code value="887151000000100"/>
       <display value="Problems and issues"/>
      </coding>
     </code>
     <text>
      <status value="additional"/>
      <div xmlns="http://www.w3.org/1999/xhtml">
       <table width="100%">
        <tbody>
         <tr>
          <th>Problems and issues</th>
          <td>
           <p>Increased tonic-clonic convulsions</p>
           <p>Problems with transport to school</p>
           <p>Increasingly tight right hip</p>
          </td>
         </tr>
        </tbody>
       </table>
      </div>
     </text>
    </section>
    <!--Procedures section - no procedures given-->
    <!--Referrer details-->
    <section>
     <title value="Referrer details"/>
     <code>
      <coding>
       <system value="http://snomed.info/sct"/>
       <code value="1052891000000108"/>
       <display value="Referrer details"/>
      </coding>
     </code>
     <text>
      <status value="additional"/>
      <div xmlns="http://www.w3.org/1999/xhtml">
       <table width="100%">
        <tbody>
         <tr>
          <th>Referrer Name</th>
          <td>
           <p>Name: Dr. C. O'Reilly</p>
           <p>Role: GP</p>
           <p>Grade: Not given</p>
           <p>Organisation: Canvas Health Centre, 27 Acacia Road, BM9 6PM</p>
           <p>Contact details: Tel (01234) 956412</p>
          </td>
         </tr>
        </tbody>
       </table>
      </div>
     </text>
    </section>
    <!-- Safety alerts section - no information given-->
    <!--Social context-->
    <section>
     <title value="Social context"/>
     <code>
      <coding>
       <system value="http://snomed.info/sct"/>
       <code value="887051000000101"/>
       <display value="Social context"/>
      </coding>
     </code>
     <text>
      <status value="additional"/>
      <div xmlns="http://www.w3.org/1999/xhtml">
       <table width="100%">
        <tbody>
         <tr>
          <th>Educational history</th>
         </tr>
         <tr>
          <td>Mary started at Greenacre School in September. She enjoys it and the teachers are pleased with her progress.  Her mother has been bringing her to school by car but this is becoming an increasing problem as due to recent changes at work she now has to start at 8:30 AM. Unfortunately Mary is not eligible for free school transport until she is five years old. The home-school liaison teacher is trying to come to an agreement with the local authority to enable Mary to use school transport.  The teacher for visual impairment has seen her in school and recommended that she use large print books and a magnifying glass.</td>
         </tr>
        </tbody>
       </table>
      </div>
     </text>
    </section>
   </Composition>
  </resource>
 </entry>
 <!--Encounter Example 1-->
 <entry>
  <fullUrl value="urn:uuid:4f36b35a-ad18-4ea9-a3fb-c893f709e88a"/>
  <resource>
   <Encounter>
    <id value="4f36b35a-ad18-4ea9-a3fb-c893f709e88a"/>
    <meta>
     <profile value="https://fhir.hl7.org.uk/STU3/StructureDefinition/CareConnect-Encounter-1"/>
    </meta>
    <extension url="https://fhir.hl7.org.uk/STU3/StructureDefinition/Extension-CareConnect-OutcomeOfAttendance-1">
     <valueCodeableConcept>
      <coding>
       <system value="https://fhir.hl7.org.uk/STU3/CodeSystem/CareConnect-OutcomeOfAttendance-1"/>
       <code value="3"/>
       <display value="Appointment to be made at a later date"/>
      </coding>
     </valueCodeableConcept>
    </extension>
    <identifier>
     <system value="https://tools.ietf.org/html/rfc4122"/>
     <value value="13c73015-d8fa-4844-8d68-4f856883eca8"/>
    </identifier>
    <status value="finished"/>
    <class>
     <system value="http://hl7.org/fhir/v3-ActEncounterCode"/>
     <code value="AMB"/>
     <display value="ambulatory"/>
    </class>
    <type>
     <coding>
      <system value="http://snomed.info/sct"/>
      <code value="17436001"/>
      <display value="Medical consultation with outpatient"/>
     </coding>
    </type>
    <subject>
     <reference value="urn:uuid:6c66c32f-655a-4b9c-9bb7-5ae31fc93010"/>
    </subject>
    <!--Reference to the participants present during the encounter-->
    <participant>
     <type>
      <coding>
       <system value="http://hl7.org/fhir/v3/ParticipationType"/>
       <code value="ATND"/>
       <display value="attender"/>
      </coding>
     </type>
     <individual>
      <reference value="urn:uuid:7ed1b03c-47f9-43c8-8dd2-675819cd8aee"/>
     </individual>
    </participant>
    <participant>
     <type>
      <coding>
       <system value="http://hl7.org/fhir/v3/ParticipationType"/>
       <code value="PART"/>
       <display value="Participation"/>
      </coding>
     </type>
     <individual>
      <reference value="urn:uuid:2e1a0589-6c62-4592-84f2-8f845049d378"/>
     </individual>
    </participant>
    <participant>
     <type>
      <coding>
       <system value="http://hl7.org/fhir/v3/ParticipationType"/>
       <code value="PART"/>
       <display value="Participation"/>
      </coding>
     </type>
     <individual>
      <reference value="urn:uuid:49da7682-5117-424a-8e68-bd0e1d0aeefc"/>
     </individual>
    </participant>
    <participant>
     <type>
      <coding>
       <system value="http://hl7.org/fhir/v3/ParticipationType"/>
       <code value="PART"/>
       <display value="Participation"/>
      </coding>
     </type>
     <individual>
      <reference value="urn:uuid:59177b7e-1b06-4081-910a-108880d8c1cc"/>
     </individual>
    </participant>
    <period>
     <start value="2017-05-01T09:00:00+00:00"/>
     <end value="2017-05-01T09:45:00+00:00"/>
    </period>
    <diagnosis>
     <condition>
      <reference value="urn:uuid:8de990a9-8df5-492d-9e32-6516dccd8b07"/>
     </condition>
    </diagnosis>
    <diagnosis>
     <condition>
      <reference value="urn:uuid:5678ec88-8bd0-4d8c-ae79-e0e1df2959a1"/>
     </condition>
    </diagnosis>
    <hospitalization>
     <dischargeDisposition>
      <coding>
       <system value="https://fhir.hl7.org.uk/STU3/CodeSystem/CareConnect-DischargeDestination-1"/>
       <code value="19"/>
       <display value="Usual place of residence unless listed below, for example, a private dwelling whether owner occupied or owned by Local Authority, housing association or other landlord. This includes wardened accommodation but not residential accommodation where health care is provided. It also includes Patients with no fixed abode."/>
      </coding>
     </dischargeDisposition>
    </hospitalization>
    <location>
     <location>
      <reference value="urn:uuid:01bb1ccc-577b-4a4a-9fb0-9c8fe9f21fa3"/>
     </location>
    </location>
   </Encounter>
  </resource>
 </entry>
 <!--Allergies list-->
 <entry>
  <fullUrl value="urn:uuid:c9219ccf-707d-4d78-99d3-800ff0d7c57c"/>
  <resource>
   <List>
    <id value="c9219ccf-707d-4d78-99d3-800ff0d7c57c"/>
    <meta>
     <profile value="https://fhir.nhs.uk/STU3/StructureDefinition/ITK-Allergies-List-1"/>
    </meta>
    <identifier>
     <system value="https://tools.ietf.org/html/rfc4122"/>
     <value value="bc839e5b-afea-4630-95e4-3ea1a638d9ff"/>
    </identifier>
    <status value="current"/>
    <mode value="snapshot"/>
    <code>
     <coding>
      <system value="http://hl7.org/fhir/list-example-use-codes"/>
      <code value="allergies"/>
      <display value="Allergies"/>
     </coding>
    </code>
    <subject>
     <reference value="urn:uuid:6c66c32f-655a-4b9c-9bb7-5ae31fc93010"/>
    </subject>
    <emptyReason>
     <coding>
      <system value="http://snomed.info/sct"/>
      <code value="716186003"/>
      <display value="No known allergy"/>
     </coding>
    </emptyReason>
   </List>
  </resource>
 </entry>
 <!--Allergy intolerance-->
 <entry>
  <fullUrl value="urn:uuid:062b213f-e179-4aa2-8b72-e3b20bc088dd"/>
  <resource>
   <AllergyIntolerance>
    <id value="062b213f-e179-4aa2-8b72-e3b20bc088dd"/>
    <meta>
     <profile value="https://fhir.hl7.org.uk/STU3/StructureDefinition/CareConnect-AllergyIntolerance-1"/>
    </meta>
    <identifier>
     <system value="https://tools.ietf.org/html/rfc4122"/>
     <value value="f08fcec7-b598-403f-b218-0e0a78119c3b"/>
    </identifier>
    <clinicalStatus value="active"/>
    <verificationStatus value="confirmed"/>
    <type value="allergy"/>
    <code>
     <coding>
      <system value="http://snomed.info/sct"/>
      <code value="716186003"/>
      <display value="No known allergy"/>
     </coding>
     <text value="No known allergies or adverse reactions"/>
    </code>
    <patient>
     <reference value="urn:uuid:6c66c32f-655a-4b9c-9bb7-5ae31fc93010"/>
    </patient>
   </AllergyIntolerance>
  </resource>
 </entry>
 <!--Diagnosis 1-->
 <entry>
  <fullUrl value="urn:uuid:8de990a9-8df5-492d-9e32-6516dccd8b07"/>
  <resource>
   <Condition>
    <id value="8de990a9-8df5-492d-9e32-6516dccd8b07"/>
    <meta>
     <profile value="https://fhir.nhs.uk/STU3/StructureDefinition/CareConnect-ITK-Condition-1"/>
    </meta>
    <identifier>
     <system value="https://tools.ietf.org/html/rfc4122"/>
     <value value="2cd7ec7f-203e-4e20-90b5-08511d756a70"/>
    </identifier>
    <clinicalStatus value="active"/>
    <verificationStatus value="confirmed"/>
    <category>
     <coding>
      <system value="https://fhir.hl7.org.uk/STU3/CodeSystem/CareConnect-ConditionCategory-1"/>
      <code value="diagnosis"/>
      <display value="Diagnosis"/>
     </coding>
    </category>
    <code>
     <coding>
      <system value="http://snomed.info/sct"/>
      <code value="54200006"/>
      <display value="Tonic-clonic seizure"/>
     </coding>
    </code>
    <subject>
     <reference value="urn:uuid:6c66c32f-655a-4b9c-9bb7-5ae31fc93010"/>
    </subject>
    <context>
     <reference value="urn:uuid:4f36b35a-ad18-4ea9-a3fb-c893f709e88a"/>
    </context>
    <assertedDate value="2017-05-01"/>
    <asserter>
     <reference value="urn:uuid:7ed1b03c-47f9-43c8-8dd2-675819cd8aee"/>
    </asserter>
   </Condition>
  </resource>
 </entry>
 <!--Diagnosis 2-->
 <entry>
  <fullUrl value="urn:uuid:5678ec88-8bd0-4d8c-ae79-e0e1df2959a1"/>
  <resource>
   <Condition>
    <id value="5678ec88-8bd0-4d8c-ae79-e0e1df2959a1"/>
    <meta>
     <profile value="https://fhir.nhs.uk/STU3/StructureDefinition/CareConnect-ITK-Condition-1"/>
    </meta>
    <identifier>
     <system value="https://tools.ietf.org/html/rfc4122"/>
     <value value="62bafe75-b04b-452b-9c80-abc17f68b506"/>
    </identifier>
    <clinicalStatus value="active"/>
    <verificationStatus value="confirmed"/>
    <category>
     <coding>
      <system value="https://fhir.hl7.org.uk/STU3/CodeSystem/CareConnect-ConditionCategory-1"/>
      <code value="diagnosis"/>
      <display value="Diagnosis"/>
     </coding>
    </category>
    <code>
     <coding>
      <system value="http://snomed.info/sct"/>
      <code value="235595009"/>
      <display value="Gastro-oesophageal reflux"/>
     </coding>
    </code>
    <subject>
     <reference value="urn:uuid:6c66c32f-655a-4b9c-9bb7-5ae31fc93010"/>
    </subject>
    <context>
     <reference value="urn:uuid:4f36b35a-ad18-4ea9-a3fb-c893f709e88a"/>
    </context>
    <assertedDate value="2017-05-01"/>
    <asserter>
     <reference value="urn:uuid:7ed1b03c-47f9-43c8-8dd2-675819cd8aee"/>
    </asserter>
   </Condition>
  </resource>
 </entry>
 <!--Diagnosis 3-->
 <entry>
  <fullUrl value="urn:uuid:2049cdf1-ce20-47a2-a3ca-7f23cd40549c"/>
  <resource>
   <Condition>
    <id value="2049cdf1-ce20-47a2-a3ca-7f23cd40549c"/>
    <meta>
     <profile value="https://fhir.nhs.uk/STU3/StructureDefinition/CareConnect-ITK-Condition-1"/>
    </meta>
    <identifier>
     <system value="https://tools.ietf.org/html/rfc4122"/>
     <value value="743e5d56-b718-4021-b985-05cfb878ce35"/>
    </identifier>
    <clinicalStatus value="active"/>
    <verificationStatus value="confirmed"/>
    <category>
     <coding>
      <system value="https://fhir.hl7.org.uk/STU3/CodeSystem/CareConnect-ConditionCategory-1"/>
      <code value="diagnosis"/>
      <display value="Diagnosis"/>
     </coding>
    </category>
    <code>
     <coding>
      <system value="http://snomed.info/sct"/>
      <code value="192965001"/>
      <display value="Spastic quadriplegia"/>
     </coding>
    </code>
    <subject>
     <reference value="urn:uuid:6c66c32f-655a-4b9c-9bb7-5ae31fc93010"/>
    </subject>
    <context>
     <reference value="urn:uuid:4f36b35a-ad18-4ea9-a3fb-c893f709e88a"/>
    </context>
    <assertedDate value="2017-05-01"/>
    <asserter>
     <reference value="urn:uuid:7ed1b03c-47f9-43c8-8dd2-675819cd8aee"/>
    </asserter>
   </Condition>
  </resource>
 </entry>
 <!--Diagnosis 4-->
 <entry>
  <fullUrl value="urn:uuid:bc5e67c7-721e-4973-8e3c-d87e13e9d3ce"/>
  <resource>
   <Condition>
    <id value="bc5e67c7-721e-4973-8e3c-d87e13e9d3ce"/>
    <meta>
     <profile value="https://fhir.nhs.uk/STU3/StructureDefinition/CareConnect-ITK-Condition-1"/>
    </meta>
    <identifier>
     <system value="https://tools.ietf.org/html/rfc4122"/>
     <value value="80c042ce-738f-4c9c-95fa-ec1120cc5f41"/>
    </identifier>
    <clinicalStatus value="active"/>
    <verificationStatus value="confirmed"/>
    <category>
     <coding>
      <system value="https://fhir.hl7.org.uk/STU3/CodeSystem/CareConnect-ConditionCategory-1"/>
      <code value="diagnosis"/>
      <display value="Diagnosis"/>
     </coding>
    </category>
    <code>
     <coding>
      <system value="http://snomed.info/sct"/>
      <code value="413924001"/>
      <display value="Cortical visual impairment "/>
     </coding>
    </code>
    <subject>
     <reference value="urn:uuid:6c66c32f-655a-4b9c-9bb7-5ae31fc93010"/>
    </subject>
    <context>
     <reference value="urn:uuid:4f36b35a-ad18-4ea9-a3fb-c893f709e88a"/>
    </context>
    <assertedDate value="2017-05-01"/>
    <asserter>
     <reference value="urn:uuid:7ed1b03c-47f9-43c8-8dd2-675819cd8aee"/>
    </asserter>
   </Condition>
  </resource>
 </entry>
 <!--Diagnosis 5-->
 <entry>
  <fullUrl value="urn:uuid:a423cb85-bffc-4198-9a9c-1247d36b28da"/>
  <resource>
   <Condition>
    <id value="a423cb85-bffc-4198-9a9c-1247d36b28da"/>
    <meta>
     <profile value="https://fhir.nhs.uk/STU3/StructureDefinition/CareConnect-ITK-Condition-1"/>
    </meta>
    <identifier>
     <system value="https://tools.ietf.org/html/rfc4122"/>
     <value value="b9e0e21c-72e8-4c4c-982d-076fb8e28373"/>
    </identifier>
    <clinicalStatus value="active"/>
    <verificationStatus value="confirmed"/>
    <category>
     <coding>
      <system value="https://fhir.hl7.org.uk/STU3/CodeSystem/CareConnect-ConditionCategory-1"/>
      <code value="diagnosis"/>
      <display value="Diagnosis"/>
     </coding>
    </category>
    <code>
     <coding>
      <system value="http://snomed.info/sct"/>
      <code value="16596007"/>
      <display value="Convergent squint"/>
     </coding>
    </code>
    <subject>
     <reference value="urn:uuid:6c66c32f-655a-4b9c-9bb7-5ae31fc93010"/>
    </subject>
    <context>
     <reference value="urn:uuid:4f36b35a-ad18-4ea9-a3fb-c893f709e88a"/>
    </context>
    <assertedDate value="2017-05-01"/>
    <asserter>
     <reference value="urn:uuid:7ed1b03c-47f9-43c8-8dd2-675819cd8aee"/>
    </asserter>
   </Condition>
  </resource>
 </entry>
 <!--Diagnosis 6-->
 <entry>
  <fullUrl value="urn:uuid:153c3f48-9823-41ea-8b08-7db1c65181b6"/>
  <resource>
   <Condition>
    <id value="153c3f48-9823-41ea-8b08-7db1c65181b6"/>
    <meta>
     <profile value="https://fhir.nhs.uk/STU3/StructureDefinition/CareConnect-ITK-Condition-1"/>
    </meta>
    <identifier>
     <system value="https://tools.ietf.org/html/rfc4122"/>
     <value value="fcb18307-9e3a-4746-a9e6-571fb1c6b06b"/>
    </identifier>
    <clinicalStatus value="active"/>
    <verificationStatus value="confirmed"/>
    <category>
     <coding>
      <system value="https://fhir.hl7.org.uk/STU3/CodeSystem/CareConnect-ConditionCategory-1"/>
      <code value="diagnosis"/>
      <display value="Diagnosis"/>
     </coding>
    </category>
    <code>
     <coding>
      <system value="http://snomed.info/sct"/>
      <code value="161129001"/>
      <display value="Learning difficulties"/>
     </coding>
    </code>
    <subject>
     <reference value="urn:uuid:6c66c32f-655a-4b9c-9bb7-5ae31fc93010"/>
    </subject>
    <context>
     <reference value="urn:uuid:4f36b35a-ad18-4ea9-a3fb-c893f709e88a"/>
    </context>
    <assertedDate value="2017-05-01"/>
    <asserter>
     <reference value="urn:uuid:7ed1b03c-47f9-43c8-8dd2-675819cd8aee"/>
    </asserter>
   </Condition>
  </resource>
 </entry>
 <!--Medication List Example 1-->
 <entry>
  <fullUrl value="urn:uuid:fed28a5f-233b-4800-ac0a-0929f1b5d3be"/>
  <resource>
   <List>
    <id value="fed28a5f-233b-4800-ac0a-0929f1b5d3be"/>
    <meta>
     <profile value="https://fhir.nhs.uk/STU3/StructureDefinition/ITK-Medication-List-1"/>
    </meta>
    <identifier>
     <system value="https://tools.ietf.org/html/rfc4122"/>
     <value value="85c0a8c9-9fad-40b7-99c2-0d693e29c9bc"/>
    </identifier>
    <status value="current"/>
    <mode value="snapshot"/>
    <code>
     <coding>
      <system value="http://hl7.org/fhir/list-example-use-codes"/>
      <code value="medications"/>
      <display value="Medication List"/>
     </coding>
    </code>
    <subject>
     <reference value="urn:uuid:6c66c32f-655a-4b9c-9bb7-5ae31fc93010"/>
    </subject>
    <entry>
     <flag>
      <coding>
       <system value="https://fhir.nhs.uk/medication-list-flag-code-1"/>
       <code value="02"/>
       <display value="Amendment"/>
      </coding>
     </flag>
     <item>
      <reference value="urn:uuid:d112c28e-f106-4d68-bcbc-141b0872fbf4"/>
     </item>
    </entry>
   </List>
  </resource>
 </entry>
 <!--Medication Statement Example 1-->
 <entry>
  <fullUrl value="urn:uuid:d112c28e-f106-4d68-bcbc-141b0872fbf4"/>
  <resource>
   <MedicationStatement>
    <id value="d112c28e-f106-4d68-bcbc-141b0872fbf4"/>
    <meta>
     <profile value="https://fhir.nhs.uk/STU3/StructureDefinition/CareConnect-ITK-MedicationStatement-1"/>
    </meta>
    <status value="active"/>
    <medicationReference>
     <reference value="urn:uuid:153229fd-4e32-4351-87c0-293253e5c4ea"/>
    </medicationReference>
    <subject>
     <reference value="urn:uuid:6c66c32f-655a-4b9c-9bb7-5ae31fc93010"/>
    </subject>
    <taken value="y"/>
    <dosage>
     <text value="10 mg of Lamotrigine dispersible tablets twice a day."/>
     <timing>
      <repeat>
       <frequency value="2"/>
       <period value="1"/>
       <periodUnit value="d"/>
      </repeat>
     </timing>
     <asNeededBoolean value="false"/>
     <route>
      <coding>
       <system value="http://snomed.info/sct"/>
       <code value="180634001"/>
       <display value="Via gastrostomy"/>
      </coding>
     </route>
     <doseQuantity>
      <value value="2"/>
      <unit value="Lamotrigine 5mg dispersible tablets sugar free"/>
      <system value="http://snomed.info/sct"/>
      <code value="322990006"/>
     </doseQuantity>
     <maxDosePerPeriod>
      <numerator>
       <value value="4"/>
       <unit value="Lamotrigine 5mg dispersible tablets sugar free"/>
       <system value="http://snomed.info/sct"/>
       <code value="322990006"/>
      </numerator>
      <denominator>
       <value value="1"/>
       <system value="http://unitsofmeasure.org"/>
       <code value="d"/>
      </denominator>
     </maxDosePerPeriod>
    </dosage>
   </MedicationStatement>
  </resource>
 </entry>
 <!--Medication Example 1-->
 <entry>
  <fullUrl value="urn:uuid:153229fd-4e32-4351-87c0-293253e5c4ea"/>
  <resource>
   <Medication>
    <id value="153229fd-4e32-4351-87c0-293253e5c4ea"/>
    <meta>
     <profile value="https://fhir.hl7.org.uk/STU3/StructureDefinition/CareConnect-Medication-1"/>
    </meta>
    <code>
     <coding>
      <system value="http://snomed.info/sct"/>
      <code value="322990006"/>
      <display value="Lamotrigine 5mg dispersible tablets sugar free"/>
     </coding>
    </code>
   </Medication>
  </resource>
 </entry>
 <!--Observation 1-->
 <entry>
  <fullUrl value="urn:uuid:ac04d4bc-1827-4c91-afa0-dd6e3c1f69e2"/>
  <resource>
   <Observation>
    <id value="ac04d4bc-1827-4c91-afa0-dd6e3c1f69e2"/>
    <meta>
     <profile value="https://fhir.nhs.uk/STU3/StructureDefinition/CareConnect-ITK-Observation-1"/>
    </meta>
    <identifier>
     <system value="https://tools.ietf.org/html/rfc4122"/>
     <value value="9c02e6a7-1220-41be-9f5e-cb1d272ea5b0"/>
    </identifier>
    <status value="final"/>
    <code>
     <coding>
      <system value="http://snomed.info/sct"/>
      <code value="71496008"/>
      <display value="Dorsiflexion of ankle"/>
     </coding>
    </code>
    <subject>
     <reference value="urn:uuid:6c66c32f-655a-4b9c-9bb7-5ae31fc93010"/>
    </subject>
    <effectiveDateTime value="2017-05-01"/>
    <performer>
     <reference value="urn:uuid:7ed1b03c-47f9-43c8-8dd2-675819cd8aee"/>
    </performer>
    <valueCodeableConcept>
     <coding>
      <system value="http://snomed.info/sct"/>
      <code value="260345003"/>
      <display value="90 degrees"/>
     </coding>
    </valueCodeableConcept>
    <bodySite>
     <coding>
      <system value="http://snomed.info/sct"/>
      <code value="69948000"/>
      <display value="Both ankles"/>
     </coding>
    </bodySite>
   </Observation>
  </resource>
 </entry>
 <!--Observation 2-->
 <entry>
  <fullUrl value="urn:uuid:eb8b4a15-dd40-47cf-ab9c-2772777d4b6a"/>
  <resource>
   <Observation>
    <id value="eb8b4a15-dd40-47cf-ab9c-2772777d4b6a"/>
    <meta>
     <profile value="https://fhir.nhs.uk/STU3/StructureDefinition/CareConnect-ITK-Observation-1"/>
    </meta>
    <identifier>
     <system value="https://tools.ietf.org/html/rfc4122"/>
     <value value="42c2e546-e7fe-40f5-aec8-67ac82c52b7d"/>
    </identifier>
    <status value="final"/>
    <code>
     <coding>
      <system value="http://snomed.info/sct"/>
      <code value="786631000000101"/>
      <display value="Active range of right hip abduction"/>
     </coding>
    </code>
    <subject>
     <reference value="urn:uuid:6c66c32f-655a-4b9c-9bb7-5ae31fc93010"/>
    </subject>
    <effectiveDateTime value="2017-05-01"/>
    <performer>
     <reference value="urn:uuid:7ed1b03c-47f9-43c8-8dd2-675819cd8aee"/>
    </performer>
    <valueQuantity>
     <value value="30"/>
     <unit value="degree (plane angle)"/>
     <system value="http://unitsofmeasure.org"/>
     <code value="deg"/>
    </valueQuantity>
   </Observation>
  </resource>
 </entry>
 <!--Observation 3-->
 <entry>
  <fullUrl value="urn:uuid:02452a9b-4bf0-4d4a-b648-5af1509a9c95"/>
  <resource>
   <Observation>
    <id value="02452a9b-4bf0-4d4a-b648-5af1509a9c95"/>
    <meta>
     <profile value="https://fhir.nhs.uk/STU3/StructureDefinition/CareConnect-ITK-Observation-1"/>
    </meta>
    <identifier>
     <system value="https://tools.ietf.org/html/rfc4122"/>
     <value value="13ac9694-5d23-4653-8b79-00dfa09272c5"/>
    </identifier>
    <status value="final"/>
    <code>
     <coding>
      <system value="http://snomed.info/sct"/>
      <code value="786621000000103"/>
      <display value="Active range of left hip abduction"/>
     </coding>
    </code>
    <subject>
     <reference value="urn:uuid:6c66c32f-655a-4b9c-9bb7-5ae31fc93010"/>
    </subject>
    <effectiveDateTime value="2017-05-01"/>
    <performer>
     <reference value="urn:uuid:7ed1b03c-47f9-43c8-8dd2-675819cd8aee"/>
    </performer>
    <valueQuantity>
     <value value="45"/>
     <unit value="degree (plane angle)"/>
     <system value="http://unitsofmeasure.org"/>
     <code value="deg"/>
    </valueQuantity>
   </Observation>
  </resource>
 </entry>
 <!--Observation 4-->
 <entry>
  <fullUrl value="urn:uuid:c6476727-0eb2-4881-9ddd-5fe4fb36ea42"/>
  <resource>
   <Observation>
    <id value="c6476727-0eb2-4881-9ddd-5fe4fb36ea42"/>
    <meta>
     <profile value="https://fhir.nhs.uk/STU3/StructureDefinition/CareConnect-ITK-Observation-1"/>
    </meta>
    <identifier>
     <system value="https://tools.ietf.org/html/rfc4122"/>
     <value value="2e3dad9a-5616-4486-a1d4-a7d402f4d338"/>
    </identifier>
    <status value="final"/>
    <code>
     <coding>
      <system value="http://snomed.info/sct"/>
      <code value="251329007"/>
      <display value="Dental caries activity"/>
     </coding>
    </code>
    <subject>
     <reference value="urn:uuid:6c66c32f-655a-4b9c-9bb7-5ae31fc93010"/>
    </subject>
    <effectiveDateTime value="2017-05-01"/>
    <performer>
     <reference value="urn:uuid:7ed1b03c-47f9-43c8-8dd2-675819cd8aee"/>
    </performer>
    <valueCodeableConcept>
     <coding>
      <system value="http://snomed.info/sct"/>
      <code value="278651003"/>
      <display value="Dental caries-free"/>
     </coding>
    </valueCodeableConcept>
   </Observation>
  </resource>
 </entry>
 <!--Patient-Example-1-->
 <entry>
  <fullUrl value="urn:uuid:6c66c32f-655a-4b9c-9bb7-5ae31fc93010"/>
  <resource>
   <Patient>
    <id value="6c66c32f-655a-4b9c-9bb7-5ae31fc93010"/>
    <meta>
     <profile value="https://fhir.hl7.org.uk/STU3/StructureDefinition/CareConnect-Patient-1"/>
    </meta>
    <extension url="https://fhir.hl7.org.uk/STU3/StructureDefinition/Extension-CareConnect-EthnicCategory-1">
     <valueCodeableConcept>
      <coding>
       <system value="https://fhir.hl7.org.uk/STU3/CodeSystem/CareConnect-EthnicCategory-1"/>
       <code value="CA"/>
       <display value="English"/>
      </coding>
     </valueCodeableConcept>
    </extension>
    <extension url="https://fhir.hl7.org.uk/STU3/StructureDefinition/Extension-CareConnect-NHSCommunication-1">
     <extension url="language">
      <valueCodeableConcept>
       <coding>
        <system value="https://fhir.hl7.org.uk/STU3/CodeSystem/CareConnect-HumanLanguage-1"/>
        <code value="en"/>
        <display value="English"/>
       </coding>
      </valueCodeableConcept>
     </extension>
     <extension url="preferred">
      <valueBoolean value="true"/>
     </extension>
     <extension url="modeOfCommunication">
      <valueCodeableConcept>
       <coding>
        <system value="https://fhir.hl7.org.uk/STU3/CodeSystem/CareConnect-LanguageAbilityMode-1"/>
        <code value="ESP"/>
        <display value="Expressed spoken"/>
       </coding>
      </valueCodeableConcept>
     </extension>
     <extension url="modeOfCommunication">
      <valueCodeableConcept>
       <coding>
        <system value="https://fhir.hl7.org.uk/STU3/CodeSystem/CareConnect-LanguageAbilityMode-1"/>
        <code value="RSP"/>
        <display value="Received spoken"/>
       </coding>
      </valueCodeableConcept>
     </extension>
     <extension url="communicationProficiency">
      <valueCodeableConcept>
       <coding>
        <system value="https://fhir.hl7.org.uk/STU3/CodeSystem/CareConnect-LanguageAbilityProficiency-1"/>
        <code value="P"/>
        <display value="Poor"/>
       </coding>
      </valueCodeableConcept>
     </extension>
     <extension url="interpreterRequired">
      <valueBoolean value="false"/>
     </extension>
    </extension>
    <identifier>
     <extension url="https://fhir.hl7.org.uk/STU3/StructureDefinition/Extension-CareConnect-NHSNumberVerificationStatus-1">
      <valueCodeableConcept>
       <coding>
        <system value="https://fhir.hl7.org.uk/STU3/CodeSystem/CareConnect-NHSNumberVerificationStatus-1"/>
        <code value="01"/>
        <display value="Number present and verified"/>
       </coding>
      </valueCodeableConcept>
     </extension>
     <system value="https://fhir.nhs.uk/Id/nhs-number"/>
     <value value="124 352 3190"/>
    </identifier>
    <identifier>
     <system value="https://fhir.nhs.uk/Id/local-patient-identifier"/>
     <value value="TL56945"/>
    </identifier>
    <active value="true"/>
    <name>
     <use value="usual"/>
     <family value="Jones"/>
     <given value="Mary"/>
     <prefix value="Miss"/>
    </name>
    <name>
     <use value="official"/>
     <family value="Jones"/>
     <given value="Mary"/>
     <prefix value="Miss"/>
    </name>
    <gender value="female"/>
    <birthDate value="2013-02-01"/>
    <address>
     <use value="home"/>
     <line value="31 Acacia Road"/>
     <postalCode value="BM9 6PL"/>
    </address>
    <contact>
     <relationship>
      <coding>
       <system value="http://hl7.org/fhir/v2/0131"/>
       <code value="N"/>
       <display value="Next-of-Kin"/>
      </coding>
     </relationship>
     <name>
      <use value="official"/>
      <family value="Jones"/>
      <given value="Sally"/>
      <prefix value="Mrs"/>
     </name>
     <telecom>
      <system value="phone"/>
      <value value="077 1234 7777"/>
      <use value="mobile"/>
     </telecom>
     <telecom>
      <system value="email"/>
      <value value="sally@jones.net"/>
      <use value="home"/>
     </telecom>
     <address>
      <use value="home"/>
      <line value="31 Acacia Road"/>
      <postalCode value="BM9 6PL"/>
     </address>
     <gender value="female"/>
    </contact>
    <contact>
     <name>
      <use value="official"/>
      <family value="Jones"/>
      <given value="Ian"/>
      <prefix value="Mr"/>
     </name>
     <address>
      <use value="home"/>
      <line value="31 Acacia Road"/>
      <postalCode value="BM9 6PL"/>
     </address>
     <gender value="male"/>
    </contact>
    <contact>
     <name>
      <use value="official"/>
      <text value="Greenacre School"/>
     </name>
     <organization>
      <reference value="urn:uuid:a375c24b-8f3b-45be-bd35-7118714ed8c4"/>
     </organization>
    </contact>
   </Patient>
  </resource>
 </entry>
 <!--Related person - patient's mother-->
 <entry>
  <fullUrl value="urn:uuid:2e1a0589-6c62-4592-84f2-8f845049d378"/>
  <resource>
   <RelatedPerson>
    <id value="2e1a0589-6c62-4592-84f2-8f845049d378"/>
    <meta>
     <profile value="https://fhir.nhs.uk/STU3/StructureDefinition/ITK-RelatedPerson-1"/>
    </meta>
    <patient>
     <reference value="urn:uuid:6c66c32f-655a-4b9c-9bb7-5ae31fc93010"/>
    </patient>
    <relationship>
     <coding>
      <system value="http://hl7.org/fhir/v3/RoleCode"/>
      <code value="MTH"/>
      <display value="mother"/>
     </coding>
    </relationship>
    <name>
     <use value="official"/>
     <family value="Jones"/>
     <given value="Sally"/>
    </name>
    <telecom>
     <system value="phone"/>
     <value value="077 1234 7777"/>
     <use value="mobile"/>
    </telecom>
    <telecom>
     <system value="email"/>
     <value value="sally@jones.net"/>
     <use value="home"/>
    </telecom>
    <gender value="female"/>
    <address>
     <use value="home"/>
     <line value="31 Acacia Road"/>
     <postalCode value="BM9 6PL"/>
    </address>
   </RelatedPerson>
  </resource>
 </entry>
 <!--Related person - patient's father-->
 <entry>
  <fullUrl value="urn:uuid:b6e1c220-5c50-4b9a-aec1-8a96927b44d9"/>
  <resource>
   <RelatedPerson>
    <id value="b6e1c220-5c50-4b9a-aec1-8a96927b44d9"/>
    <meta>
     <profile value="https://fhir.nhs.uk/STU3/StructureDefinition/ITK-RelatedPerson-1"/>
    </meta>
    <patient>
     <reference value="urn:uuid:6c66c32f-655a-4b9c-9bb7-5ae31fc93010"/>
    </patient>
    <relationship>
     <coding>
      <system value="http://hl7.org/fhir/v3/RoleCode"/>
      <code value="FTH"/>
      <display value="father"/>
     </coding>
    </relationship>
    <name>
     <use value="official"/>
     <family value="Jones"/>
     <given value="Ian"/>
    </name>
    <gender value="male"/>
    <address>
     <use value="home"/>
     <line value="31 Acacia Road"/>
     <postalCode value="BM9 6PL"/>
    </address>
   </RelatedPerson>
  </resource>
 </entry>
 <!--Practitioner-Example-1-->
 <entry>
  <fullUrl value="urn:uuid:7ed1b03c-47f9-43c8-8dd2-675819cd8aee"/>
  <resource>
   <Practitioner>
    <id value="7ed1b03c-47f9-43c8-8dd2-675819cd8aee"/>
    <meta>
     <profile value="https://fhir.hl7.org.uk/STU3/StructureDefinition/CareConnect-Practitioner-1"/>
    </meta>
    <identifier>
     <system value="https://fhir.nhs.uk/Id/local-practitioner-identifier"/>
     <value value=" 6775556"/>
    </identifier>
    <name>
     <family value="Arnold"/>
     <given value="Rimmer"/>
     <prefix value="Dr"/>
    </name>
    <telecom>
     <system value="phone"/>
     <value value="(01234) 567890"/>
     <use value="work"/>
    </telecom>
    <telecom>
     <system value="email"/>
     <value value="cpc@nhs.uk"/>
     <use value="work"/>
    </telecom>
    <address>
     <use value="work"/>
     <line value="Community Paediatrics Department"/>
     <line value="Adobe Health Centre"/>
     <city value="Donaldstown"/>
     <postalCode value="DO1 4XP"/>
    </address>
   </Practitioner>
  </resource>
 </entry>
 <!--Practitioner-Example-2-->
 <entry>
  <fullUrl value="urn:uuid:598a5239-fc65-46ed-94b2-9357ae08f6ef"/>
  <resource>
   <Practitioner>
    <id value="598a5239-fc65-46ed-94b2-9357ae08f6ef"/>
    <meta>
     <profile value="https://fhir.hl7.org.uk/STU3/StructureDefinition/CareConnect-Practitioner-1"/>
    </meta>
    <name>
     <family value="O`Reilly"/>
     <given value="C"/>
     <prefix value="Dr"/>
    </name>
    <telecom>
     <system value="phone"/>
     <value value="(01234) 956412"/>
     <use value="work"/>
    </telecom>
    <address>
     <use value="work"/>
     <line value="Canvas Health Centre"/>
     <line value="27, Acacia Road"/>
     <postalCode value="BM9 6PM"/>
    </address>
   </Practitioner>
  </resource>
 </entry>
 <!--Practitioner-Example-3-->
 <entry>
  <fullUrl value="urn:uuid:4e42a3ef-6ba8-4fc4-954b-792e21539d32"/>
  <resource>
   <Practitioner>
    <id value="4e42a3ef-6ba8-4fc4-954b-792e21539d32"/>
    <meta>
     <profile value="https://fhir.hl7.org.uk/STU3/StructureDefinition/CareConnect-Practitioner-1"/>
    </meta>
    <name>
     <family value="Charlotte"/>
     <given value="Worth"/>
     <prefix value="Dr"/>
    </name>
    <address>
     <line value="Orthopaedics Department"/>
     <line value="St. Crispin's Hospital"/>
     <city value="Donaldstown"/>
     <postalCode value="DO5 7TP"/>
    </address>
   </Practitioner>
  </resource>
 </entry>
 <!--Practitioner-Example-4-->
 <entry>
  <fullUrl value="urn:uuid:9ef45ff1-d75c-4595-8812-1be366210688"/>
  <resource>
   <Practitioner>
    <id value="9ef45ff1-d75c-4595-8812-1be366210688"/>
    <meta>
     <profile value="https://fhir.hl7.org.uk/STU3/StructureDefinition/CareConnect-Practitioner-1"/>
    </meta>
    <name>
     <family value="Brown"/>
     <given value="Philip"/>
     <prefix value="Mr"/>
    </name>
    <address>
     <line value="Epilepsy Support Team"/>
     <line value="St. Crispin's Hospital"/>
     <city value="Donaldstown"/>
     <postalCode value="DO5 7TP"/>
    </address>
   </Practitioner>
  </resource>
 </entry>
 <!--Practitioner-Example-5-->
 <entry>
  <fullUrl value="urn:uuid:49da7682-5117-424a-8e68-bd0e1d0aeefc"/>
  <resource>
   <Practitioner>
    <id value="49da7682-5117-424a-8e68-bd0e1d0aeefc"/>
    <meta>
     <profile value="https://fhir.hl7.org.uk/STU3/StructureDefinition/CareConnect-Practitioner-1"/>
    </meta>
    <name>
     <family value="White"/>
     <given value="Jenny"/>
    </name>
    <address>
     <line value="Occupational Therapy Department"/>
     <line value="St. Crispin's Hospital"/>
     <city value="Donaldstown"/>
     <postalCode value="DO5 7TP"/>
    </address>
   </Practitioner>
  </resource>
 </entry>
 <!--Practitioner-Example-6-->
 <entry>
  <fullUrl value="urn:uuid:59177b7e-1b06-4081-910a-108880d8c1cc"/>
  <resource>
   <Practitioner>
    <id value="59177b7e-1b06-4081-910a-108880d8c1cc"/>
    <meta>
     <profile value="https://fhir.hl7.org.uk/STU3/StructureDefinition/CareConnect-Practitioner-1"/>
    </meta>
    <name>
     <family value="Hall"/>
     <given value="Sarah"/>
    </name>
    <address>
     <use value="work"/>
     <line value="Community Paediatrics Department"/>
     <line value="Adobe Health Centre"/>
     <city value="Donaldstown"/>
     <postalCode value="DO1 4XP"/>
    </address>
   </Practitioner>
  </resource>
 </entry>
 <!--Practitioner roles-->
 <entry>
  <fullUrl value="urn:uuid:1d84c93b-df78-4443-9181-a400ad31200a"/>
  <resource>
   <PractitionerRole>
    <id value="1d84c93b-df78-4443-9181-a400ad31200a"/>
    <meta>
     <profile value="https://fhir.hl7.org.uk/STU3/StructureDefinition/CareConnect-PractitionerRole-1"/>
    </meta>
    <practitioner>
     <reference value="urn:uuid:7ed1b03c-47f9-43c8-8dd2-675819cd8aee"/>
    </practitioner>
    <organization>
     <reference value="urn:uuid:f725c91c-e4c2-43f2-b92e-0cba8deb9687"/>
    </organization>
    <specialty>
     <coding>
      <system value="http://snomed.info/sct"/>
      <code value="309329001"/>
      <display value="Community paediatrician"/>
     </coding>
    </specialty>
   </PractitionerRole>
  </resource>
 </entry>
 <entry>
  <fullUrl value="urn:uuid:e7847e37-1f84-4741-8257-eeafdb90d053"/>
  <resource>
   <PractitionerRole>
    <id value="e7847e37-1f84-4741-8257-eeafdb90d053"/>
    <meta>
     <profile value="https://fhir.hl7.org.uk/STU3/StructureDefinition/CareConnect-PractitionerRole-1"/>
    </meta>
    <practitioner>
     <reference value="urn:uuid:598a5239-fc65-46ed-94b2-9357ae08f6ef"/>
    </practitioner>
    <organization>
     <reference value="urn:uuid:48feca8e-92e9-45c1-afcf-1b4aabe72d0b"/>
    </organization>
    <code>
     <coding>
      <system value="https://fhir.hl7.org.uk/STU3/CodeSystem/CareConnect-SDSJobRoleName-1"/>
      <code value="R0260"/>
      <display value="General Medical Practitioner"/>
     </coding>
    </code>
   </PractitionerRole>
  </resource>
 </entry>
 <entry>
  <fullUrl value="urn:uuid:18314133-a39e-47ae-8984-8710993f0b1d"/>
  <resource>
   <PractitionerRole>
    <id value="18314133-a39e-47ae-8984-8710993f0b1d"/>
    <meta>
     <profile value="https://fhir.hl7.org.uk/STU3/StructureDefinition/CareConnect-PractitionerRole-1"/>
    </meta>
    <practitioner>
     <reference value="urn:uuid:4e42a3ef-6ba8-4fc4-954b-792e21539d32"/>
    </practitioner>
    <organization>
     <reference value="urn:uuid:f8d005f7-3b9d-4fad-a33e-8e87a4897433"/>
    </organization>
    <code>
     <coding>
      <system value="https://fhir.nhs.uk/STU3/CodeSystem/CareConnect-SDSJobRoleName-1"/>
      <code value="R0050"/>
      <display value="Consultant"/>
     </coding>
    </code>
    <specialty>
     <coding>
      <system value="http://snomed.info/sct"/>
      <code value="394801008"/>
      <display value="Trauma &amp;orthopaedics"/>
     </coding>
    </specialty>
   </PractitionerRole>
  </resource>
 </entry>
 <entry>
  <fullUrl value="urn:uuid:13b7fffc-308d-4df2-aa9d-3998ab75eee8"/>
  <resource>
   <PractitionerRole>
    <id value="13b7fffc-308d-4df2-aa9d-3998ab75eee8"/>
    <meta>
     <profile value="https://fhir.hl7.org.uk/STU3/StructureDefinition/CareConnect-PractitionerRole-1"/>
    </meta>
    <practitioner>
     <reference value="urn:uuid:9ef45ff1-d75c-4595-8812-1be366210688"/>
    </practitioner>
    <organization>
     <reference value="urn:uuid:f8d005f7-3b9d-4fad-a33e-8e87a4897433"/>
    </organization>
    <code>
     <coding>
      <system value="https://fhir.hl7.org.uk/STU3/CodeSystem/CareConnect-SDSJobRoleName-1"/>
      <code value="R0600"/>
      <display value="Specialist Nurse Practitioner"/>
     </coding>
    </code>
    <specialty>
     <coding>
      <system value="http://snomed.info/sct"/>
      <code value="394591006"/>
      <display value="Neurology"/>
     </coding>
    </specialty>
   </PractitionerRole>
  </resource>
 </entry>
 <entry>
  <fullUrl value="urn:uuid:46cfafd3-92dd-4412-825b-4ae36303aff9"/>
  <resource>
   <PractitionerRole>
    <id value="46cfafd3-92dd-4412-825b-4ae36303aff9"/>
    <meta>
     <profile value="https://fhir.hl7.org.uk/STU3/StructureDefinition/CareConnect-PractitionerRole-1"/>
    </meta>
    <practitioner>
     <reference value="urn:uuid:49da7682-5117-424a-8e68-bd0e1d0aeefc"/>
    </practitioner>
    <code>
     <coding>
      <system value="https://fhir.hl7.org.uk/STU3/CodeSystem/CareConnect-SDSJobRoleName-1"/>
      <code value="R0950"/>
      <display value="Occupational Therapist"/>
     </coding>
    </code>
   </PractitionerRole>
  </resource>
 </entry>
 <entry>
  <fullUrl value="urn:uuid:8957f3e0-dd1b-45bc-8a20-b4eee02db4d3"/>
  <resource>
   <PractitionerRole>
    <id value="8957f3e0-dd1b-45bc-8a20-b4eee02db4d3"/>
    <meta>
     <profile value="https://fhir.hl7.org.uk/STU3/StructureDefinition/CareConnect-PractitionerRole-1"/>
    </meta>
    <practitioner>
     <reference value="urn:uuid:59177b7e-1b06-4081-910a-108880d8c1cc"/>
    </practitioner>
    <code>
     <coding>
      <system value="https://fhir.hl7.org.uk/STU3/CodeSystem/CareConnect-SDSJobRoleName-1"/>
      <code value="R1480"/>
      <display value="Healthcare Assistant"/>
     </coding>
    </code>
   </PractitionerRole>
  </resource>
 </entry>
 <!--Organization-Example-1-->
 <entry>
  <fullUrl value="urn:uuid:48feca8e-92e9-45c1-afcf-1b4aabe72d0b"/>
  <resource>
   <Organization>
    <id value="48feca8e-92e9-45c1-afcf-1b4aabe72d0b"/>
    <meta>
     <profile value="https://fhir.hl7.org.uk/STU3/StructureDefinition/CareConnect-Organization-1"/>
    </meta>
    <identifier>
     <system value="https://fhir.nhs.uk/Id/ods-organization-code"/>
     <value value="A111111"/>
    </identifier>
    <type>
     <coding>
      <system value="http://hl7.org/fhir/organization-type"/>
      <code value="prov"/>
      <display value="Healthcare Provider"/>
     </coding>
    </type>
    <name value="Canvas Health Centre"/>
    <telecom>
     <system value="phone"/>
     <value value="01234 956412"/>
     <use value="work"/>
    </telecom>
    <address>
     <use value="work"/>
     <line value="27 Acacia Road"/>
     <line value="BM9 6PM "/>
    </address>
   </Organization>
  </resource>
 </entry>
 <!--Organization-Example-2-->
 <entry>
  <fullUrl value="urn:uuid:f725c91c-e4c2-43f2-b92e-0cba8deb9687"/>
  <resource>
   <Organization>
    <id value="f725c91c-e4c2-43f2-b92e-0cba8deb9687"/>
    <meta>
     <profile value="https://fhir.hl7.org.uk/STU3/StructureDefinition/CareConnect-Organization-1"/>
    </meta>
    <type>
     <coding>
      <system value="http://hl7.org/fhir/organization-type"/>
      <code value="prov"/>
      <display value="Healthcare Provider"/>
     </coding>
    </type>
    <name value="Community Paediatrics Department"/>
    <telecom>
     <system value="phone"/>
     <value value="(01234) 567890"/>
     <use value="work"/>
    </telecom>
    <telecom>
     <system value="email"/>
     <value value="cpc@nhs.uk"/>
     <use value="work"/>
    </telecom>
    <address>
     <use value="work"/>
     <line value="Community Paediatrics Department"/>
     <line value="Adobe Health Centre"/>
     <city value="Donaldstown"/>
     <postalCode value="DO1 4XP"/>
    </address>
   </Organization>
  </resource>
 </entry>
 <!--Organization-Example-3-->
 <entry>
  <fullUrl value="urn:uuid:f8d005f7-3b9d-4fad-a33e-8e87a4897433"/>
  <resource>
   <Organization>
    <id value="f8d005f7-3b9d-4fad-a33e-8e87a4897433"/>
    <meta>
     <profile value="https://fhir.hl7.org.uk/STU3/StructureDefinition/CareConnect-Organization-1"/>
    </meta>
    <identifier>
     <system value="https://fhir.nhs.uk/Id/ods-organization-code"/>
     <value value="RX0000"/>
    </identifier>
    <type>
     <coding>
      <system value="http://hl7.org/fhir/organization-type"/>
      <code value="prov"/>
      <display value="Healthcare Provider"/>
     </coding>
    </type>
    <name value="St Crispin's Hospital"/>
    <telecom>
     <system value="phone"/>
     <value value="01234 567893"/>
     <use value="work"/>
    </telecom>
    <address>
     <line value="St Crispin’s Hospital"/>
     <line value="Donaldstown"/>
     <postalCode value="DO5 7TP"/>
    </address>
   </Organization>
  </resource>
 </entry>
 <!--Organization-Example-4-->
 <entry>
  <fullUrl value="urn:uuid:a375c24b-8f3b-45be-bd35-7118714ed8c4"/>
  <resource>
   <Organization>
    <id value="a375c24b-8f3b-45be-bd35-7118714ed8c4"/>
    <meta>
     <profile value="https://fhir.hl7.org.uk/STU3/StructureDefinition/CareConnect-Organization-1"/>
    </meta>
    <type>
     <coding>
      <system value="http://hl7.org/fhir/organization-type"/>
      <code value="edu"/>
      <display value="	Educational Institute"/>
     </coding>
    </type>
    <name value="Greenacre School"/>
    <address>
     <city value="Donaldstown"/>
     <postalCode value="DO5 6AA"/>
    </address>
   </Organization>
  </resource>
 </entry>
 <!--Location-Example-1-->
 <entry>
  <fullUrl value="urn:uuid:01bb1ccc-577b-4a4a-9fb0-9c8fe9f21fa3"/>
  <resource>
   <Location>
    <id value="01bb1ccc-577b-4a4a-9fb0-9c8fe9f21fa3"/>
    <meta>
     <profile value="https://fhir.hl7.org.uk/STU3/StructureDefinition/CareConnect-Location-1"/>
    </meta>
    <name value="Community Paediatrics Clinic"/>
    <type>
     <coding>
      <system value="http://hl7.org/fhir/v3/RoleCode"/>
      <code value="OF"/>
      <display value="Outpatient facility"/>
     </coding>
    </type>
    <address>
     <use value="work"/>
     <line value="Adobe Health Centre"/>
     <city value="Donaldstown"/>
     <postalCode value="DO1 4XP"/>
    </address>
    <managingOrganization>
     <reference value="urn:uuid:f725c91c-e4c2-43f2-b92e-0cba8deb9687"/>
    </managingOrganization>
   </Location>
  </resource>
 </entry>
</Bundle>
