<?xml version="1.0" encoding="UTF-8"?>
<!--This xml example is for illustrative purposes only and has not been clinically verified-->
<Bundle xmlns="http://hl7.org/fhir">
 <id value="d730b478-d881-4cd4-b3a1-6abbb761de5e"/>
 <meta>
  <profile value="https://fhir.nhs.uk/STU3/StructureDefinition/ITK-Document-Bundle-1"/>
 </meta>
 <identifier>
  <system value="https://tools.ietf.org/html/rfc4122"/>
  <value value="f18f5330-a1e0-4f34-9e7d-3fcf6e3f0b8b"/>
 </identifier>
 <type value="document"/>
 <!--Outpatient Letter Composition-->
 <entry>
  <fullUrl value="urn:uuid:1640ce91-05db-4174-aa9a-3db6b4a205c2"/>
  <resource>
   <Composition>
    <id value="1640ce91-05db-4174-aa9a-3db6b4a205c2"/>
    <meta>
     <profile value="https://fhir.nhs.uk/STU3/StructureDefinition/ITK-OPL-Composition-1"/>
    </meta>
    <extension url="https://fhir.nhs.uk/STU3/StructureDefinition/Extension-ITK-CareSettingType-1">
     <valueCodeableConcept>
      <coding>
       <system value="http://snomed.info/sct"/>
       <code value="3621000175101"/>
       <display value="Rheumatology service"/>
      </coding>
     </valueCodeableConcept>
    </extension>
    <identifier>
     <value value="94a7c4b9-1e92-4b3b-bf6a-5e3a9c35d0d5"/>
    </identifier>
    <status value="final"/>
    <type>
     <!--Outpatient letter-->
     <coding>
      <system value="http://snomed.info/sct"/>
      <code value="823681000000100"/>
      <display value="Outpatient letter"/>
     </coding>
    </type>
    <subject>
     <reference value="urn:uuid:bad2cc22-8186-437c-9531-68ff1e89104d"/>
    </subject>
    <!--Reference to the clinical encounter or type of care this documentation is associated with.-->
    <encounter>
     <reference value="urn:uuid:3abcaae6-dfbc-4e6d-80ed-912e64f3052f"/>
    </encounter>
    <!--The composition editing time, when the composition was last logically changed by the author.-->
    <date value="2017-05-11T14:38:00+00:00"/>
    <!--Identifies who is responsible for the information in the composition, not necessarily who typed it in-->
    <author>
     <reference value="urn:uuid:9aaf5503-c48e-4ff8-9365-85f06295a11b"/>
    </author>
    <title value="Outpatient letter"/>
    <!--Identifies the organization responsible for ongoing maintenance of and access to the composition/document information.-->
    <custodian>
     <reference value="urn:uuid:1cb3ed43-370c-4a1b-a6d4-1fab57f1646f"/>
    </custodian>
    <!--Sections are included here-->
    <!-- Allergies and adverse reactions section-->
    <section>
     <title value="Allergies and adverse reactions"/>
     <code>
      <coding>
       <system value="http://snomed.info/sct"/>
       <code value="886921000000105"/>
       <display value="Allergies and adverse reactions"/>
      </coding>
     </code>
     <text>
      <status value="generated"/>
      <div xmlns="http://www.w3.org/1999/xhtml">
       <table width="100%">
        <tbody>
         <tr>
          <th>Causative agent</th>
          <td>No known allergies or adverse reactions</td>
         </tr>
        </tbody>
       </table>
      </div>
     </text>
     <!--Reference to Allergies List as the source of information for this section-->
     <entry>
      <reference value="urn:uuid:4d2876df-9027-4baa-a64d-3f3180ddd4ec"/>
     </entry>
    </section>
    <section>
     <title value="Attendance details"/>
     <code>
      <coding>
       <system value="http://snomed.info/sct"/>
       <code value="1077881000000105"/>
       <display value="Attendance details"/>
      </coding>
     </code>
     <text>
      <status value="additional"/>
      <div xmlns="http://www.w3.org/1999/xhtml">
       <table width="100%">
        <tbody>
         <tr>
          <td colspan="2" style="width:100%">Dear Dr. O'Reilly<br/>Thank you for referring Miss Gently to my rheumatology outpatient clinic.<br/>
          </td>
         </tr>
         <tr>
          <th>Date and time of contact</th>
          <td>11-May-2017</td>
         </tr>
         <tr>
          <th>Contact type</th>
          <td>First attendance</td>
         </tr>
         <tr>
          <th>Consultation method</th>
          <td>Face-to-face</td>
         </tr>
         <tr>
          <th>Responsible Healthcare professional</th>
          <td>Dr H.H. Crippen</td>
         </tr>
         <tr>
          <th>Specialty</th>
          <td>Rheumatology</td>
         </tr>
         <tr>
          <th>Service</th>
          <td>Rheumatology service</td>
         </tr>
         <tr>
          <th>Seen by</th>
          <td>Dr H.H. Crippen (Consultant Rheumatologist) Tel: (01234) 569879</td>
         </tr>
         <tr>
          <th>Outcome of outpatient attendance</th>
          <td>Appointment to be made at a later date</td>
         </tr>
        </tbody>
       </table>
      </div>
     </text>
    </section>
    <!-- Clinical review of systems section-->
    <section>
     <title value="Clinical review of systems"/>
     <code>
      <coding>
       <system value="http://snomed.info/sct"/>
       <code value="887121000000105"/>
       <display value="Review of systems"/>
      </coding>
     </code>
     <text>
      <status value="additional"/>
      <div xmlns="http://www.w3.org/1999/xhtml">
       <table width="100%">
        <tbody>
         <tr>
          <th>Clinical review of systems</th>
          <td>Poor Sleep</td>
         </tr>
        </tbody>
       </table>
      </div>
     </text>
    </section>
    <!-- Clinical summary section-->
    <section>
     <title value="Clinical summary"/>
     <!--SNOMED CT classification of section-->
     <code>
      <coding>
       <system value="http://snomed.info/sct"/>
       <code value="887181000000106"/>
       <display value="Clinical summary"/>
      </coding>
     </code>
     <text>
      <status value="additional"/>
      <div xmlns="http://www.w3.org/1999/xhtml">
       <table width="100%">
        <tbody>
         <tr>
          <th>Clinical summary</th>
          <td>Symptoms are unlikely to improve until sleep disturbance is tackled.  I suggest Amitriptyline is prescribed.</td>
         </tr>
        </tbody>
       </table>
      </div>
     </text>
    </section>
    <!--Diagnoses section-->
    <section>
     <title value="Diagnoses"/>
     <code>
      <coding>
       <system value="http://snomed.info/sct"/>
       <code value="887161000000102"/>
       <display value="Diagnoses"/>
      </coding>
     </code>
     <text>
      <status value="generated"/>
      <div xmlns="http://www.w3.org/1999/xhtml">
       <table width="100%">
        <tbody>
         <tr>
          <th>Diagnosis name</th>
          <td>Multiple joint pain</td>
         </tr>
         <tr>
          <th>Diagnosis name</th>
          <td>Fatigue. No evidence of inflammatory arthritis.</td>
         </tr>
         <tr>
          <th>Diagnosis name</th>
          <td>Type 1 diabetes</td>
         </tr>
         <tr>
          <th>Diagnosis name</th>
          <td>Hypothyroidism</td>
         </tr>
        </tbody>
       </table>
      </div>
     </text>
     <!--Reference to the Condition resources which carry supporting information for this section.-->
     <entry>
      <reference value="urn:uuid:7c09df38-890a-4d4c-bb86-00f93cad74a5"/>
     </entry>
     <entry>
      <reference value="urn:uuid:0e5811d6-6e36-491a-9d2c-612149d4b3b9"/>
     </entry>
     <entry>
      <reference value="urn:uuid:5af206c3-b5b5-4140-a9fa-4c4daf59331c"/>
     </entry>
     <entry>
      <reference value="urn:uuid:8a29b416-2b8e-43db-bb92-578ba36961af"/>
     </entry>
    </section>
    <!--Distribution list-->
    <section>
     <title value="Distribution list"/>
     <code>
      <coding>
       <system value="http://snomed.info/sct"/>
       <code value="887261000000109"/>
       <display value="Distribution list"/>
      </coding>
     </code>
     <text>
      <status value="generated"/>
      <div xmlns="http://www.w3.org/1999/xhtml">
       <table width="100%">
        <tbody>
         <tr>
          <th>Name</th>
          <td>Dr C O'Reilly</td>
         </tr>
         <tr>
          <th>Role</th>
          <td>GP</td>
         </tr>
         <tr>
          <th>Organisation</th>
          <td>Canvas Health Centre - Organisation ID: A111111</td>
         </tr>
         <tr>
          <th>Relationship to subject</th>
          <td>GP</td>
         </tr>
        </tbody>
       </table>
       <table width="100%">
        <tbody>
         <tr>
          <th>Name</th>
          <td>Ophelia Gently</td>
         </tr>
         <tr>
          <th>Role</th>
          <td>Patient</td>
         </tr>
        </tbody>
       </table>
      </div>
     </text>
     <!--Reference to the practitioner entry as recipient of information-->
     <entry>
      <reference value="urn:uuid:37fdbe18-3dd5-4b37-b090-a2f222bc968c"/>
     </entry>
     <!--Reference to the patient entry as recipient of information-->
     <entry>
      <reference value="urn:uuid:bad2cc22-8186-437c-9531-68ff1e89104d"/>
     </entry>
    </section>
    <!--Examination findings-->
    <section>
     <title value="Examination finding"/>
     <code>
      <coding>
       <system value="http://snomed.info/sct"/>
       <code value="715851000000102"/>
       <display value="Examination findings"/>
      </coding>
     </code>
     <text>
      <status value="additional"/>
      <div xmlns="http://www.w3.org/1999/xhtml">
       <table width="100%">
        <tbody>
         <tr>
          <th>Examination findings</th>
          <td>Musculoskeletal system - Trapezius discomfort on elevation of the shoulders. Discomfort on active neck movements.</td>
         </tr>
        </tbody>
       </table>
      </div>
     </text>
    </section>
    <!-- GP Practice-->
    <section>
     <title value="GP practice"/>
     <code>
      <coding>
       <system value="http://snomed.info/sct"/>
       <code value="886711000000101"/>
       <display value="GP practice details"/>
      </coding>
     </code>
     <text>
      <status value="additional"/>
      <div xmlns="http://www.w3.org/1999/xhtml">
       <table width="100%">
        <tbody>
         <tr>
          <th>GP practice identifier</th>
          <td>A111111</td>
         </tr>
         <tr>
          <th>GP name</th>
          <td>Dr C O'Reilly</td>
         </tr>
         <tr>
          <th>GP practice details</th>
          <td>Canvas Health Centre, 27, Acacia Road, BM9 6PM</td>
         </tr>
        </tbody>
       </table>
      </div>
     </text>
     <!--Reference to the Organisation entry as the source of information for this section-->
     <entry>
      <reference value="urn:uuid:5c2e339d-3b3c-4de8-b61c-00cc9a4d6e41"/>
     </entry>
    </section>
    <section>
     <title value="History"/>
     <code>
      <coding>
       <system value="http://snomed.info/sct"/>
       <code value="717121000000105"/>
       <display value="History"/>
      </coding>
     </code>
     <text>
      <status value="generated"/>
      <div xmlns="http://www.w3.org/1999/xhtml">
       <table width="100%">
        <tbody>
         <tr>
          <th>Presenting complaints or issue</th>
          <td>Miss Gently has had left wrist pain since December 2016. Since then she has also had right wrist pain and aching in the shoulders and knees. She describes tingling and burning in the forearms and in the calves and shins. Her symptoms are gradually worsening and they are now constant. She feels tired all the time and has broken unrefreshing sleep. She has been diagnosed with Type 1 diabetes and hypothyroidism.</td>
         </tr>
        </tbody>
       </table>
      </div>
     </text>
     <!--Reference to the resources where information for this section can be found-->
     <entry>
      <reference value="urn:uuid:7c09df38-890a-4d4c-bb86-00f93cad74a5"/>
     </entry>
    </section>
    <!--Individual requirements section -no information given-->
    <!--Information and advice given section-->
    <section>
     <title value="Information and advice given"/>
     <code>
      <coding>
       <system value="http://snomed.info/sct"/>
       <code value="1052951000000105"/>
       <display value="Information and advice given"/>
      </coding>
     </code>
     <text>
      <status value="additional"/>
      <div xmlns="http://www.w3.org/1999/xhtml">
       <table width="100%">
        <tbody>
         <tr>
          <th>Information and advice given</th>
          <td>The patient was advised that previous abnormal blood results are not of any clinical significant other than reflecting known diagnosis of thyroid disease. </td>
         </tr>
        </tbody>
       </table>
      </div>
     </text>
    </section>
    <!-- Investigation results section-->
    <section>
     <title value="Investigation results"/>
     <code>
      <coding>
       <system value="http://snomed.info/sct"/>
       <code value="1082101000000102"/>
       <display value="Investigation results"/>
      </coding>
     </code>
     <text>
      <status value="additional"/>
      <div xmlns="http://www.w3.org/1999/xhtml">
       <table width="100%">
        <tbody>
         <tr>
          <th>Investigation result</th>
          <td>Antinuclear antibodies: Normal</td>
         </tr>
         <tr>
          <th>Investigation result</th>
          <td>Complement levels: Normal</td>
         </tr>
         <tr>
          <th>Investigation result</th>
          <td>Immunoglobins:Normal</td>
         </tr>
        </tbody>
       </table>
      </div>
     </text>
    </section>
    <!--Legal information section - no information given-->
    <!--Medications and medical devices section-->
    <section>
     <title value="Medications and medical devices"/>
     <code>
      <coding>
       <system value="http://snomed.info/sct"/>
       <code value="933361000000108"/>
       <display value="Medications and medical devices"/>
      </coding>
     </code>
     <text>
      <status value="generated"/>
      <div xmlns="http://www.w3.org/1999/xhtml">
       <table width="100%">
        <tbody>
         <tr>
          <th>Medication item</th>
          <td>Medication name: Amitriptyline</td>
          <td>Form: Tablet</td>
          <td>Route: Oral</td>
          <td>Dose directions description: 1 x 10mg tablet to be taken orally once a day. Titrating upwards according to response and tolerance.</td>
          <td>Dose timing description: To be taken one hour before bed.</td>
         </tr>
         <tr>
          <th>Medication change</th>
          <td>Status: Added</td>
          <td>Indication: Sleep disturbance</td>
          <td>Date of latest change: Start date/time: 11/05/17. End date/time: Trial for 2 weeks</td>
          <td colspan="2">Comment: Patient given 2 week prescription in clinic. GP to please review in 2 weeks and renew or amend prescription as necessary.</td>
         </tr>
        </tbody>
       </table>
      </div>
     </text>
     <!--Reference to medication list-->
     <entry>
      <reference value="urn:uuid:cef7f8d5-78e3-4866-89f1-62470d6fd636"/>
     </entry>
    </section>
    <section>
     <title value="Participation in research"/>
     <!--SNOMED CT classification of section-->
     <code>
      <coding>
       <system value="http://snomed.info/sct"/>
       <code value="886751000000102"/>
       <display value="Participation in research"/>
      </coding>
     </code>
     <text>
      <status value="additional"/>
      <div xmlns="http://www.w3.org/1999/xhtml">
       <table width="100%">
        <tbody>
         <tr>
          <th>Name of research study</th>
          <td>
           <a href="http://www.kcl.ac.uk/lsm/research/divisions/diiid/departments/rheumatology/research/clinical/current/apippra/apippra.aspx">
           APIPPRA</a>
          </td>
         </tr>
        </tbody>
       </table>
      </div>
     </text>
    </section>
    <!--Patient and carer concerns-->
    <section>
     <title value="Patient and carer concerns, expectations and wishes"/>
     <!--SNOMED CT classification of section-->
     <code>
      <coding>
       <system value="http://snomed.info/sct"/>
       <code value="1052941000000107"/>
       <display value="Patient and carer concerns, expectations and wishes"/>
      </coding>
     </code>
     <text>
      <status value="additional"/>
      <div xmlns="http://www.w3.org/1999/xhtml">
       <table width="100%">
        <tbody>
         <tr>
          <th>Patient and carer concerns, expectations and wishes</th>
          <td>I just want to stop hurting all the time and to have some energy back.</td>
         </tr>
        </tbody>
       </table>
      </div>
     </text>
    </section>
    <!-- Patient demographics-->
    <section>
     <title value="Patient demographics"/>
     <code>
      <coding>
       <system value="http://snomed.info/sct"/>
       <code value="886731000000109"/>
       <display value="Patient demographics"/>
      </coding>
     </code>
     <text>
      <status value="generated"/>
      <div xmlns="http://www.w3.org/1999/xhtml">
       <table width="100%">
        <tbody>
         <tr>
          <th>Patient name</th>
          <td>Miss Ophelia Gently</td>
         </tr>
         <tr>
          <th>Patient preferred name</th>
          <td>Ophelia Gently</td>
         </tr>
         <tr>
          <th>Date of birth</th>
          <td>1 April 1984</td>
         </tr>
         <tr>
          <th>Gender</th>
          <td>2 Female</td>
         </tr>
         <tr>
          <th>NHS number</th>
          <td>987 654 3210</td>
         </tr>
         <tr>
          <th>Other identifier</th>
          <td>TL98764</td>
         </tr>
         <tr>
          <th>Patient address</th>
          <td>22, Acacia Road, BM9 6PL</td>
         </tr>
         <tr>
          <th>Patient email address</th>
          <td>ophelia@gently.net</td>
         </tr>
         <tr>
          <th>Patient telephone number</th>
          <td>077 7777 776</td>
         </tr>
        </tbody>
       </table>
      </div>
     </text>
     <!--reference to further information carried in the patient resource-->
     <entry>
      <reference value="urn:uuid:bad2cc22-8186-437c-9531-68ff1e89104d"/>
     </entry>
    </section>
    <!--Person completing record section-->
    <section>
     <title value="Person completing record"/>
     <code>
      <coding>
       <system value="http://snomed.info/sct"/>
       <code value="887231000000104"/>
       <display value="Person completing record"/>
      </coding>
     </code>
     <text>
      <status value="generated"/>
      <div xmlns="http://www.w3.org/1999/xhtml">
       <table width="100%">
        <tbody>
         <tr>
          <th>Name</th>
          <td>Dr. H.H. Crippen</td>
         </tr>
         <tr>
          <th>Role</th>
          <td>Consultant Rheumatologist</td>
         </tr>
         <tr>
          <th>Grade</th>
          <td>Not given</td>
         </tr>
         <tr>
          <th>Specialty</th>
          <td>Rheumatology</td>
         </tr>
         <tr>
          <th>Professional identifier</th>
          <td>GMC: 2639598</td>
         </tr>
         <tr>
          <th>Date and time completed</th>
          <td>11/05/2017: 14:38</td>
         </tr>
         <tr>
          <th>Contact details</th>
          <td>Email: Hawley.crippen@nhs.net</td>
         </tr>
        </tbody>
       </table>
      </div>
     </text>
     <!--reference to further information carried in the practitioner resource-->
     <entry>
      <reference value="urn:uuid:9aaf5503-c48e-4ff8-9365-85f06295a11b"/>
     </entry>
    </section>
    <!--Plan and requested actions-->
    <section>
     <title value="Plan and requested actions"/>
     <code>
      <coding>
       <system value="http://snomed.info/sct"/>
       <code value="887201000000105"/>
       <display value="Plan and requested actions"/>
      </coding>
     </code>
     <text>
      <status value="additional"/>
      <div xmlns="http://www.w3.org/1999/xhtml">
       <table width="100%">
        <tbody>
         <tr>
          <th>Actions for patient or their carer</th>
          <td>Should endeavor to take regular, gentle exercise in gradually increasing amounts.</td>
         </tr>
        </tbody>
       </table>
      </div>
     </text>
    </section>
    <!--Problems and issues section - no information given-->
    <!--Procedures section - no information given-->
    <section>
     <title value="Referrer details"/>
     <code>
      <coding>
       <system value="http://snomed.info/sct"/>
       <code value="1052891000000108"/>
       <display value="Referrer details"/>
      </coding>
     </code>
     <text>
      <status value="additional"/>
      <div xmlns="http://www.w3.org/1999/xhtml">
       <table width="100%">
        <tbody>
         <tr>
          <th>Referrer Name</th>
          <td>
           <p>Name: Dr. C. O'Reilly</p>
           <p>Role: GP</p>
           <p>Grade: Not given</p>
           <p>Organisation: Canvas Health Centre, 27 Acacia Road, BM9 6PM</p>
           <p>Contact details: Tel (01234) 956412</p>
          </td>
         </tr>
        </tbody>
       </table>
      </div>
     </text>
    </section>
    <!--Relevant clinical risk factors - no information given-->
    <!--Safety alerts - no information given-->
    <!-- Social context section-->
    <section>
     <title value="Social context"/>
     <!--SNOMED CT classification of section-->
     <code>
      <coding>
       <system value="http://snomed.info/sct"/>
       <code value="887051000000101"/>
       <display value="Social context"/>
      </coding>
     </code>
     <text>
      <status value="additional"/>
      <div xmlns="http://www.w3.org/1999/xhtml">
       <table width="100%">
        <tbody>
         <tr>
          <th>Occupational history</th>
          <td>Unemployed</td>
         </tr>
         <tr>
          <th>Smoking</th>
          <td>Ex-smoker</td>
         </tr>
         <tr>
          <th>Alcohol intake</th>
          <td>10-12 units weekly</td>
         </tr>
         <tr>
          <th>Drug/substance use</th>
          <td>No information given</td>
         </tr>
        </tbody>
       </table>
      </div>
     </text>
    </section>
   </Composition>
  </resource>
 </entry>
 <!--Encounter Example 1-->
 <entry>
  <fullUrl value="urn:uuid:3abcaae6-dfbc-4e6d-80ed-912e64f3052f"/>
  <resource>
   <Encounter>
    <id value="3abcaae6-dfbc-4e6d-80ed-912e64f3052f"/>
    <meta>
     <profile value="https://fhir.hl7.org.uk/STU3/StructureDefinition/CareConnect-Encounter-1"/>
    </meta>
    <extension url="https://fhir.hl7.org.uk/STU3/StructureDefinition/Extension-CareConnect-OutcomeOfAttendance-1">
     <valueCodeableConcept>
      <coding>
       <system value="https://fhir.hl7.org.uk/STU3/CodeSystem/CareConnect-OutcomeOfAttendance-1"/>
       <code value="3"/>
       <display value="Appointment to be made at a later date"/>
      </coding>
     </valueCodeableConcept>
    </extension>
    <identifier>
     <system value="https://tools.ietf.org/html/rfc4122"/>
     <value value="639bbd49-4ad5-40a0-918e-fd901ead30b7"/>
    </identifier>
    <status value="finished"/>
    <class>
     <system value="http://hl7.org/fhir/v3-ActEncounterCode"/>
     <code value="AMB"/>
     <display value="ambulatory"/>
     <!--The term ambulatory usually implies that the patient has come to the location and is not assigned to a bed. Sometimes referred to as an outpatient encounter.-->
    </class>
    <!--Specific type of encounter-->
    <type>
     <coding>
      <system value="http://snomed.info/sct"/>
      <code value="163381000000105"/>
      <display value="Outpatient Clinic Attendance"/>
     </coding>
    </type>
    <!--Reference to the patient as the subject of the Encounter-->
    <subject>
     <reference value="urn:uuid:bad2cc22-8186-437c-9531-68ff1e89104d"/>
    </subject>
    <!--Reference to the participants present during the encounter-->
    <participant>
     <type>
      <coding>
       <system value="http://hl7.org/fhir/v3/ParticipationType"/>
       <code value="PPRF"/>
       <display value="primary performer"/>
      </coding>
     </type>
     <individual>
      <reference value="urn:uuid:9aaf5503-c48e-4ff8-9365-85f06295a11b"/>
     </individual>
    </participant>
    <period>
     <start value="2017-05-11T13:40:00+00:00"/>
     <end value="2017-05-11T14:38:00+00:00"/>
    </period>
    <!--	The list of diagnoses relevant to this encounter-->
    <diagnosis>
     <!--Reason the encounter takes place (resource)-->
     <condition>
      <reference value="urn:uuid:7c09df38-890a-4d4c-bb86-00f93cad74a5"/>
     </condition>
    </diagnosis>
    <hospitalization>
     <admitSource>
      <coding>
       <system value="http://hl7.org/fhir/admit-source"/>
       <code value="gp"/>
       <display value="General Practitioner referral"/>
      </coding>
     </admitSource>
     <!--	Category or kind of location after discharge-->
     <dischargeDisposition>
      <coding>
       <system value="https://fhir.hl7.org.uk/STU3/CodeSystem/CareConnect-DischargeDestination-1"/>
       <code value="19"/>
       <display value="Usual place of residence unless listed below, for example, a private dwelling whether owner occupied or owned by Local Authority, housing association or other landlord. This includes wardened accommodation but not residential accommodation where health care is provided. It also includes Patients with no fixed abode."/>
      </coding>
     </dischargeDisposition>
    </hospitalization>
   </Encounter>
  </resource>
 </entry>
 <!--Medication List Example 1-->
 <entry>
  <fullUrl value="urn:uuid:cef7f8d5-78e3-4866-89f1-62470d6fd636"/>
  <resource>
   <List>
    <id value="cef7f8d5-78e3-4866-89f1-62470d6fd636"/>
    <meta>
     <profile value="https://fhir.nhs.uk/STU3/StructureDefinition/ITK-Medication-List-1"/>
    </meta>
    <identifier>
     <system value="https://tools.ietf.org/html/rfc4122"/>
     <value value="871f3590-f050-40d0-975a-022668cfb4c3"/>
    </identifier>
    <status value="current"/>
    <mode value="snapshot"/>
    <code>
     <coding>
      <system value="http://hl7.org/fhir/list-example-use-codes"/>
      <code value="medications"/>
      <display value="Medication List"/>
     </coding>
    </code>
    <subject>
     <!--Patient reference-->
     <reference value="urn:uuid:bad2cc22-8186-437c-9531-68ff1e89104d"/>
    </subject>
    <entry>
     <flag>
      <coding>
       <system value="https://fhir.nhs.uk/STU3/CodeSystem/ITK-PatientMedicationChangeType-1"/>
       <code value="04"/>
       <display value="Addition"/>
      </coding>
     </flag>
     <item>
      <reference value="urn:uuid:a7da3060-d2f5-4761-b010-aa04e9e491dc"/>
     </item>
    </entry>
   </List>
  </resource>
 </entry>
 <!--Medication Statement Example 1-->
 <entry>
  <fullUrl value="urn:uuid:a7da3060-d2f5-4761-b010-aa04e9e491dc"/>
  <resource>
   <MedicationStatement>
    <id value="a7da3060-d2f5-4761-b010-aa04e9e491dc"/>
    <meta>
     <profile value="https://fhir.nhs.uk/STU3/StructureDefinition/CareConnect-ITK-MedicationStatement-1"/>
    </meta>
    <status value="active"/>
    <medicationReference>
     <reference value="urn:uuid:cc869708-b975-4fe5-a502-a6c22675c31e"/>
     <display value="Amitriptyline"/>
    </medicationReference>
    <effectivePeriod>
     <start value="2017-05-11"/>
     <end value="2017-05-25"/>
    </effectivePeriod>
    <subject>
     <reference value="urn:uuid:bad2cc22-8186-437c-9531-68ff1e89104d"/>
    </subject>
    <taken value="y"/>
    <reasonCode>
     <coding>
      <system value="http://snomed.info/sct"/>
      <code value="44186003"/>
      <display value="Dyssomnia"/>
     </coding>
    </reasonCode>
    <dosage>
     <text value="1 x 10mg tablet"/>
     <additionalInstruction>
      <text value="To be taken one hour before bed."/>
     </additionalInstruction>
     <timing>
      <repeat>
       <frequency value="1"/>
       <period value="1"/>
       <periodUnit value="d"/>
      </repeat>
     </timing>
     <asNeededBoolean value="false"/>
     <route>
      <coding>
       <system value="http://snomed.info/sct"/>
       <code value="26643006"/>
       <display value="Oral"/>
      </coding>
     </route>
     <doseQuantity>
      <value value="10"/>
      <unit value="mg"/>
      <system value="http://unitsofmeasure.org"/>
      <code value="mg"/>
     </doseQuantity>
    </dosage>
   </MedicationStatement>
  </resource>
 </entry>
 <!--Medication Example 1-->
 <entry>
  <fullUrl value="urn:uuid:cc869708-b975-4fe5-a502-a6c22675c31e"/>
  <resource>
   <Medication>
    <id value="cc869708-b975-4fe5-a502-a6c22675c31e"/>
    <meta>
     <profile value="https://fhir.hl7.org.uk/STU3/StructureDefinition/CareConnect-Medication-1"/>
    </meta>
    <code>
     <coding>
      <system value="http://snomed.info/sct"/>
      <code value="321745007"/>
      <display value="Amitriptyline 10mg tablets"/>
     </coding>
    </code>
   </Medication>
  </resource>
 </entry>
 <!--Medication Flag Example 1-->
 <entry>
  <fullUrl value="urn:uuid:ed5e6de1-cf12-4875-87d1-fc049946b018"/>
  <resource>
   <Flag>
    <id value="ed5e6de1-cf12-4875-87d1-fc049946b018"/>
    <meta>
     <profile value="https://fhir.nhs.uk/STU3/StructureDefinition/CareConnect-ITK-Medication-Flag-1"/>
    </meta>
    <!--This references the MedicationStatement.-->
    <extension url="https://fhir.nhs.uk/STU3/StructureDefinition/Extension-CareConnect-ITK-MedicationFlagAssociation-1">
     <valueReference>
      <reference value="urn:uuid:a7da3060-d2f5-4761-b010-aa04e9e491dc"/>
     </valueReference>
    </extension>
    <identifier>
     <system value="https://tools.ietf.org/html/rfc4122"/>
     <value value="8907bfca-b3fd-4388-bb79-33fdb75bbc7d"/>
    </identifier>
    <status value="active"/>
    <category>
     <coding>
      <system value="http://hl7.org/fhir/flag-category"/>
      <code value="drug"/>
      <display value="Drug"/>
     </coding>
    </category>
    <code>
     <coding>
      <system value="https://fhir.hl7.org.uk/STU3/CodeSystem/CareConnect-MedicationFlag-1"/>
      <code value="continue-indefinitely"/>
      <display value="Continue Indefinitely"/>
     </coding>
    </code>
    <subject>
     <reference value="urn:uuid:bad2cc22-8186-437c-9531-68ff1e89104d"/>
    </subject>
   </Flag>
  </resource>
 </entry>
 <!--Diagnoses 1-->
 <entry>
  <fullUrl value="urn:uuid:7c09df38-890a-4d4c-bb86-00f93cad74a5"/>
  <resource>
   <Condition>
    <id value="7c09df38-890a-4d4c-bb86-00f93cad74a5"/>
    <meta>
     <profile value="https://fhir.nhs.uk/STU3/StructureDefinition/CareConnect-ITK-Condition-1"/>
    </meta>
    <identifier>
     <system value="https://tools.ietf.org/html/rfc4122"/>
     <value value="bc8e4fc0-18dc-46b5-9f60-30857b24e42b"/>
    </identifier>
    <clinicalStatus value="active"/>
    <verificationStatus value="confirmed"/>
    <category>
     <coding>
      <system value="https://fhir.hl7.org.uk/STU3/CodeSystem/CareConnect-ConditionCategory-1"/>
      <code value="diagnosis"/>
      <display value="Diagnosis"/>
     </coding>
    </category>
    <code>
     <coding>
      <system value="http://snomed.info/sct"/>
      <code value="35678005"/>
      <display value="Multiple joint pain"/>
     </coding>
    </code>
    <subject>
     <reference value="urn:uuid:bad2cc22-8186-437c-9531-68ff1e89104d"/>
    </subject>
    <!--Reference to the encounter-->
    <context>
     <reference value="urn:uuid:3abcaae6-dfbc-4e6d-80ed-912e64f3052f"/>
    </context>
    <assertedDate value="2017-05-11"/>
    <asserter>
     <reference value="urn:uuid:9aaf5503-c48e-4ff8-9365-85f06295a11b"/>
    </asserter>
   </Condition>
  </resource>
 </entry>
 <!--Diagnoses 2-->
 <entry>
  <fullUrl value="urn:uuid:0e5811d6-6e36-491a-9d2c-612149d4b3b9"/>
  <resource>
   <Condition>
    <id value="0e5811d6-6e36-491a-9d2c-612149d4b3b9"/>
    <meta>
     <profile value="https://fhir.nhs.uk/STU3/StructureDefinition/CareConnect-ITK-Condition-1"/>
    </meta>
    <identifier>
     <system value="https://tools.ietf.org/html/rfc4122"/>
     <value value="9b5bfd05-4359-4639-93eb-28f13542013f"/>
    </identifier>
    <clinicalStatus value="active"/>
    <verificationStatus value="confirmed"/>
    <category>
     <coding>
      <system value="https://fhir.hl7.org.uk/STU3/CodeSystem/CareConnect-ConditionCategory-1"/>
      <code value="diagnosis"/>
      <display value="Diagnosis"/>
     </coding>
    </category>
    <code>
     <coding>
      <system value="http://snomed.info/sct"/>
      <code value="84229001"/>
      <display value="Fatigue"/>
     </coding>
     <text value="Fatigue. No evidence of inflammatory arthritis."/>
    </code>
    <subject>
     <reference value="urn:uuid:bad2cc22-8186-437c-9531-68ff1e89104d"/>
    </subject>
    <!--Reference to the encounter-->
    <context>
     <reference value="urn:uuid:3abcaae6-dfbc-4e6d-80ed-912e64f3052f"/>
    </context>
    <assertedDate value="2017-05-11"/>
    <asserter>
     <reference value="urn:uuid:9aaf5503-c48e-4ff8-9365-85f06295a11b"/>
    </asserter>
   </Condition>
  </resource>
 </entry>
 <!--Diagnoses 3-->
 <entry>
  <fullUrl value="urn:uuid:5af206c3-b5b5-4140-a9fa-4c4daf59331c"/>
  <resource>
   <Condition>
    <id value="5af206c3-b5b5-4140-a9fa-4c4daf59331c"/>
    <meta>
     <profile value="https://fhir.nhs.uk/STU3/StructureDefinition/CareConnect-ITK-Condition-1"/>
    </meta>
    <identifier>
     <system value="https://tools.ietf.org/html/rfc4122"/>
     <value value="1d1f13a2-c3ea-4743-9bd2-af2047b8759f"/>
    </identifier>
    <clinicalStatus value="active"/>
    <verificationStatus value="confirmed"/>
    <category>
     <coding>
      <system value="https://fhir.hl7.org.uk/STU3/CodeSystem/CareConnect-ConditionCategory-1"/>
      <code value="diagnosis"/>
      <display value="Diagnosis"/>
     </coding>
    </category>
    <code>
     <coding>
      <system value="http://snomed.info/sct"/>
      <code value="46635009"/>
      <display value="Type 1 diabetes mellitus"/>
     </coding>
    </code>
    <subject>
     <reference value="urn:uuid:bad2cc22-8186-437c-9531-68ff1e89104d"/>
    </subject>
    <!--Reference to the encounter-->
    <context>
     <reference value="urn:uuid:3abcaae6-dfbc-4e6d-80ed-912e64f3052f"/>
    </context>
    <assertedDate value="2017-05-11"/>
    <asserter>
     <reference value="urn:uuid:9aaf5503-c48e-4ff8-9365-85f06295a11b"/>
    </asserter>
   </Condition>
  </resource>
 </entry>
 <!--Diagnoses 4-->
 <entry>
  <fullUrl value="urn:uuid:8a29b416-2b8e-43db-bb92-578ba36961af"/>
  <resource>
   <Condition>
    <id value="8a29b416-2b8e-43db-bb92-578ba36961af"/>
    <meta>
     <profile value="https://fhir.nhs.uk/STU3/StructureDefinition/CareConnect-ITK-Condition-1"/>
    </meta>
    <identifier>
     <system value="https://tools.ietf.org/html/rfc4122"/>
     <value value="1d1f13a2-c3ea-4743-9bd2-af2047b8759f"/>
    </identifier>
    <clinicalStatus value="active"/>
    <verificationStatus value="confirmed"/>
    <category>
     <coding>
      <system value="https://fhir.hl7.org.uk/STU3/CodeSystem/CareConnect-ConditionCategory-1"/>
      <code value="diagnosis"/>
      <display value="Diagnosis"/>
     </coding>
    </category>
    <code>
     <coding>
      <system value="http://snomed.info/sct"/>
      <code value="40930008"/>
      <display value="Hypothyroidism"/>
     </coding>
    </code>
    <subject>
     <reference value="urn:uuid:bad2cc22-8186-437c-9531-68ff1e89104d"/>
    </subject>
    <!--Reference to the encounter-->
    <context>
     <reference value="urn:uuid:3abcaae6-dfbc-4e6d-80ed-912e64f3052f"/>
    </context>
    <assertedDate value="2017-05-11"/>
    <asserter>
     <reference value="urn:uuid:9aaf5503-c48e-4ff8-9365-85f06295a11b"/>
    </asserter>
   </Condition>
  </resource>
 </entry>
 <!--Patient-Example-1-->
 <entry>
  <fullUrl value="urn:uuid:bad2cc22-8186-437c-9531-68ff1e89104d"/>
  <resource>
   <Patient>
    <id value="bad2cc22-8186-437c-9531-68ff1e89104d"/>
    <meta>
     <profile value="https://fhir.hl7.org.uk/STU3/StructureDefinition/CareConnect-Patient-1"/>
    </meta>
    <extension url="https://fhir.hl7.org.uk/STU3/StructureDefinition/Extension-CareConnect-EthnicCategory-1">
     <valueCodeableConcept>
      <coding>
       <system value="https://fhir.hl7.org.uk/STU3/CodeSystem/CareConnect-EthnicCategory-1"/>
       <code value="A"/>
       <display value="British, Mixed British"/>
      </coding>
     </valueCodeableConcept>
    </extension>
    <extension url="https://fhir.hl7.org.uk/STU3/StructureDefinition/Extension-CareConnect-NHSCommunication-1">
     <extension url="language">
      <valueCodeableConcept>
       <coding>
        <system value="https://fhir.hl7.org.uk/STU3/CodeSystem/CareConnect-HumanLanguage-1"/>
        <code value="en"/>
        <display value="English"/>
       </coding>
      </valueCodeableConcept>
     </extension>
     <extension url="preferred">
      <valueBoolean value="true"/>
     </extension>
     <extension url="modeOfCommunication">
      <valueCodeableConcept>
       <coding>
        <system value="https://fhir.hl7.org.uk/STU3/CodeSystem/CareConnect-LanguageAbilityMode-1"/>
        <code value="ESP"/>
        <display value="Expressed spoken"/>
       </coding>
      </valueCodeableConcept>
     </extension>
     <extension url="modeOfCommunication">
      <valueCodeableConcept>
       <coding>
        <system value="https://fhir.hl7.org.uk/STU3/CodeSystem/CareConnect-LanguageAbilityMode-1"/>
        <code value="RWR"/>
        <display value="Received written"/>
       </coding>
      </valueCodeableConcept>
     </extension>
     <extension url="communicationProficiency">
      <valueCodeableConcept>
       <coding>
        <system value="https://fhir.hl7.org.uk/STU3/CodeSystem/CareConnect-LanguageAbilityProficiency-1"/>
        <code value="E"/>
        <display value="Excellent"/>
       </coding>
      </valueCodeableConcept>
     </extension>
     <extension url="interpreterRequired">
      <valueBoolean value="false"/>
     </extension>
    </extension>
    <identifier>
     <extension url="https://fhir.hl7.org.uk/STU3/StructureDefinition/Extension-CareConnect-NHSNumberVerificationStatus-1">
      <valueCodeableConcept>
       <coding>
        <system value="https://fhir.hl7.org.uk/STU3/CodeSystem/CareConnect-NHSNumberVerificationStatus-1"/>
        <code value="01"/>
        <display value="Number present and verified"/>
       </coding>
      </valueCodeableConcept>
     </extension>
     <system value="https://fhir.nhs.uk/Id/nhs-number"/>
     <value value="987 654 3210"/>
    </identifier>
    <identifier>
     <system value="https://fhir.nhs.uk/Id/local-patient-identifier"/>
     <value value="TL98764"/>
    </identifier>
    <active value="true"/>
    <name>
     <use value="official"/>
     <family value="Gently"/>
     <given value="Ophelia"/>
     <prefix value="Miss"/>
    </name>
    <name>
     <use value="usual"/>
     <family value="Gently"/>
     <given value="Ophelia"/>
     <prefix value="Miss"/>
    </name>
    <telecom>
     <system value="phone"/>
     <value value="077 7777 776"/>
     <use value="mobile"/>
    </telecom>
    <telecom>
     <system value="email"/>
     <value value="ophelia@gently.net"/>
     <use value="home"/>
    </telecom>
    <gender value="female"/>
    <birthDate value="1984-04-01"/>
    <address>
     <use value="home"/>
     <line value="22 Acacia Road"/>
     <postalCode value="BM9 6PL"/>
    </address>
   </Patient>
  </resource>
 </entry>
 <!--Practitioner-Example-->
 <entry>
  <fullUrl value="urn:uuid:9aaf5503-c48e-4ff8-9365-85f06295a11b"/>
  <resource>
   <Practitioner>
    <id value="9aaf5503-c48e-4ff8-9365-85f06295a11b"/>
    <meta>
     <profile value="https://fhir.hl7.org.uk/STU3/StructureDefinition/CareConnect-Practitioner-1"/>
    </meta>
    <name>
     <family value="Crippen"/>
     <given value="Hawley"/>
     <prefix value="Dr"/>
    </name>
    <telecom>
     <system value="email"/>
     <value value="Hawley.crippen@nhs.net"/>
     <use value="work"/>
    </telecom>
    <address>
     <line value="Rheumatology Department"/>
     <line value="St Crispin's Hospital"/>
     <city value="Donaldstown"/>
     <postalCode value="DO5 7TP"/>
    </address>
   </Practitioner>
  </resource>
 </entry>
 <!--Practitioner-Example-2-->
 <entry>
  <fullUrl value="urn:uuid:37fdbe18-3dd5-4b37-b090-a2f222bc968c"/>
  <resource>
   <Practitioner>
    <id value="37fdbe18-3dd5-4b37-b090-a2f222bc968c"/>
    <meta>
     <profile value="https://fhir.hl7.org.uk/STU3/StructureDefinition/CareConnect-Practitioner-1"/>
    </meta>
    <name>
     <family value="O'Reilly"/>
     <given value="C"/>
     <prefix value="Dr"/>
    </name>
    <telecom>
     <system value="phone"/>
     <value value="01234 956412"/>
     <use value="work"/>
    </telecom>
   </Practitioner>
  </resource>
 </entry>
 <!--Practitioner role - General Medical Practitioner-->
 <entry>
  <fullUrl value="urn:uuid:fcc956a8-a96f-4bd5-b0b2-196bbb1f0f66"/>
  <resource>
   <PractitionerRole>
    <id value="fcc956a8-a96f-4bd5-b0b2-196bbb1f0f66"/>
    <meta>
     <profile value="https://fhir.hl7.org.uk/STU3/StructureDefinition/CareConnect-PractitionerRole-1"/>
    </meta>
    <practitioner>
     <reference value="urn:uuid:37fdbe18-3dd5-4b37-b090-a2f222bc968c"/>
    </practitioner>
    <organization>
     <reference value="urn:uuid:5c2e339d-3b3c-4de8-b61c-00cc9a4d6e41"/>
    </organization>
    <code>
     <coding>
      <system value="https://fhir.hl7.org.uk/STU3/CodeSystem/CareConnect-SDSJobRoleName-1"/>
      <code value="R0260"/>
      <display value="General Medical Practitioner"/>
     </coding>
    </code>
   </PractitionerRole>
  </resource>
 </entry>
 <!--Practitioner roles -Consultant-->
 <entry>
  <fullUrl value="urn:uuid:cd734ce9-468d-4a36-8dac-e453aa4747e0"/>
  <resource>
   <PractitionerRole>
    <id value="cd734ce9-468d-4a36-8dac-e453aa4747e0"/>
    <meta>
     <profile value="https://fhir.hl7.org.uk/STU3/StructureDefinition/CareConnect-PractitionerRole-1"/>
    </meta>
    <practitioner>
     <reference value="urn:uuid:9aaf5503-c48e-4ff8-9365-85f06295a11b"/>
    </practitioner>
    <organization>
     <reference value="urn:uuid:1cb3ed43-370c-4a1b-a6d4-1fab57f1646f"/>
    </organization>
    <code>
     <coding>
      <system value="https://fhir.hl7.org.uk/STU3/CodeSystem/CareConnect-SDSJobRoleName-1"/>
      <code value="R0050"/>
      <display value="Consultant"/>
     </coding>
    </code>
   </PractitionerRole>
  </resource>
 </entry>
 <!--Organization-Example-1-->
 <entry>
  <fullUrl value="urn:uuid:5c2e339d-3b3c-4de8-b61c-00cc9a4d6e41"/>
  <resource>
   <Organization>
    <id value="5c2e339d-3b3c-4de8-b61c-00cc9a4d6e41"/>
    <meta>
     <profile value="https://fhir.hl7.org.uk/STU3/StructureDefinition/CareConnect-Organization-1"/>
    </meta>
    <identifier>
     <system value="https://fhir.nhs.uk/Id/ods-organization-code"/>
     <value value="A111111"/>
    </identifier>
    <type>
     <coding>
      <system value="http://hl7.org/fhir/organization-type"/>
      <code value="prov"/>
      <display value="Healthcare Provider"/>
     </coding>
    </type>
    <name value="Canvas Health Centre"/>
    <telecom>
     <system value="email"/>
     <value value="Admin@MMC.co.uk"/>
    </telecom>
    <address>
     <use value="work"/>
     <line value="27 Acacia Road"/>
     <postalCode value="BM9 6PM"/>
    </address>
   </Organization>
  </resource>
 </entry>
 <!--Organization-Example-2-->
 <entry>
  <fullUrl value="urn:uuid:1cb3ed43-370c-4a1b-a6d4-1fab57f1646f"/>
  <resource>
   <Organization>
    <id value="1cb3ed43-370c-4a1b-a6d4-1fab57f1646f"/>
    <meta>
     <profile value="https://fhir.hl7.org.uk/STU3/StructureDefinition/CareConnect-Organization-1"/>
    </meta>
    <identifier>
     <system value="https://fhir.nhs.uk/Id/ods-organization-code"/>
     <value value="RX0000"/>
    </identifier>
    <type>
     <coding>
      <system value="http://hl7.org/fhir/organization-type"/>
      <code value="prov"/>
      <display value="Healthcare Provider"/>
     </coding>
    </type>
    <name value="St Crispin's Hospital"/>
    <telecom>
     <system value="phone"/>
     <value value="01234 567890"/>
     <use value="work"/>
    </telecom>
    <address>
     <line value="St Crispin's Hospital"/>
     <line value="Donaldstown"/>
     <postalCode value="DO5 7TP"/>
    </address>
   </Organization>
  </resource>
 </entry>
 <entry>
  <fullUrl value="urn:uuid:4d2876df-9027-4baa-a64d-3f3180ddd4ec"/>
  <resource>
   <List>
    <id value="4d2876df-9027-4baa-a64d-3f3180ddd4ec"/>
    <meta>
     <profile value="https://fhir.nhs.uk/STU3/StructureDefinition/ITK-Allergies-List-1"/>
    </meta>
    <identifier>
     <system value="https://tools.ietf.org/html/rfc4122"/>
     <value value="5305facf-8d17-40c1-92f1-1da1645527e2"/>
    </identifier>
    <status value="current"/>
    <mode value="snapshot"/>
    <code>
     <coding>
      <system value="http://hl7.org/fhir/list-example-use-codes"/>
      <code value="allergies"/>
      <display value="Allergies"/>
     </coding>
    </code>
    <subject>
     <reference value="urn:uuid:bad2cc22-8186-437c-9531-68ff1e89104d"/>
    </subject>
    <emptyReason>
     <coding>
      <system value="http://snomed.info/sct"/>
      <code value="716186003"/>
      <display value="No known allergy"/>
     </coding>
    </emptyReason>
   </List>
  </resource>
 </entry>
</Bundle>
